timestamp,drone_id,x,y,z,vx,vy,vz,ax,ay,az,roll,pitch,yaw,battery,temperature,signal_strength
2024-01-01 10:00:00,0,50.24835707650561,-0.06913215058559233,50.32384426905035,0.5106578725316666,0.4520471299322576,-0.34091941405827697,0.0,0.0,0.0,0.0,-26.5597808756978,41.51605803535091,99.71609607890795,24.983723619140754,-76.5168826323161
2024-01-01 10:00:00,1,40.65322347140512,28.97531618094075,49.91408747766164,-0.7277956314966687,1.0346578017346282,0.4610576928095682,0.0,0.0,0.0,0.0,20.025531753154947,125.12319567238012,100.0,25.169978720347,-77.67187433851747
2024-01-01 10:00:00,2,15.500502696620782,48.075907971997445,50.773949523418565,-0.586878977973182,0.06694462646205324,-0.15712945020607094,0.0,0.0,0.0,0.0,-14.896411000032167,173.4924621816309,100.0,25.176379977476174,-72.9086873250141
2024-01-01 10:00:00,3,-14.851520959993433,48.31275395345024,49.73733866942796,-1.867443848294947,-1.2704316592195255,0.7708507424998743,0.0,0.0,0.0,0.0,18.84443990704479,-145.77234417663135,100.0,25.31070324002811,-77.77492063337087
2024-01-01 10:00:00,4,-40.51477060813087,28.626971659080674,49.89378658101491,-0.5345106872873018,1.0244408531195575,0.4870391805469225,0.0,0.0,0.0,0.0,22.855248011223132,117.55368234049371,100.0,24.866567600928253,-77.98235421318002
2024-01-01 10:00:00,5,-51.14917995608876,-0.12352268103774201,48.96304333708162,1.5448655965954927,-0.2047835246308498,0.7205959471726899,0.0,0.0,0.0,0.0,24.815862540169096,-7.550963536292144,99.61478495044558,24.876519013766536,-76.45909310216388
2024-01-01 10:00:00,6,-40.78643149864587,-29.045383901789982,49.45309071706581,-0.02838121186371012,-0.7208614044671755,0.3523926027753319,0.0,0.0,0.0,0.0,26.034161725875062,-92.25464175550134,100.0,24.428846352355958,-76.48890922616816
2024-01-01 10:00:00,7,-15.247456201314337,-47.384494140244634,49.50614917141131,0.5348984488365378,0.349808567007706,1.2364648419641,0.0,0.0,0.0,0.0,62.665645683095164,33.18355931742047,100.0,24.921151002207402,-80.4471038936911
2024-01-01 10:00:00,8,16.346668594927266,-47.329891503652135,50.02452725250226,0.0768847312692067,0.5326298368324274,-0.23291030000246593,0.0,0.0,0.0,0.0,-23.402855724078364,81.78613213675567,100.0,24.976569470322808,-74.49469062404506
2024-01-01 10:00:00,9,40.777784258453636,-28.652515929981178,50.08162015541703,0.06968034660751243,-0.19744387988415824,-0.6997943868733714,0.0,0.0,0.0,0.0,-73.34280112411642,-70.56144342682492,100.0,25.682065644896383,-77.23500758938752
2024-01-01 10:00:01,0,50.75901494903728,0.38291497934666524,49.98292485499207,0.5106578725316666,0.4520471299322576,-0.34091941405827697,0.0,0.0,0.0,0.0,-26.5597808756978,41.51605803535091,100.0,24.629768175904044,-78.73808397216277
2024-01-01 10:00:01,1,39.92542783990845,30.00997398267538,50.37514517047121,-0.7277956314966687,1.0346578017346282,0.4610576928095682,0.0,0.0,0.0,0.0,20.025531753154947,125.12319567238012,99.68089139046505,24.97066738890481,-75.83490927948121
2024-01-01 10:00:01,2,14.9136237186476,48.1428525984595,50.616820073212494,-0.586878977973182,0.06694462646205324,-0.15712945020607094,0.0,0.0,0.0,0.0,-14.896411000032167,173.4924621816309,99.83459857624909,24.965075980341314,-77.52799983508001
2024-01-01 10:00:01,3,-16.71896480828838,47.042322294230715,50.50818941192784,-1.867443848294947,-1.2704316592195255,0.7708507424998743,0.0,0.0,0.0,0.0,18.84443990704479,-145.77234417663135,99.18361862059821,24.730548837776876,-74.9274617904735
2024-01-01 10:00:01,4,-41.04928129541817,29.65141251220023,50.38082576156183,-0.5345106872873018,1.0244408531195575,0.4870391805469225,0.0,0.0,0.0,0.0,22.855248011223132,117.55368234049371,99.60048642526819,25.41372058281909,-75.87954987156616
2024-01-01 10:00:01,5,-49.604314359493266,-0.3283062056685918,49.68363928425431,1.5448655965954927,-0.2047835246308498,0.7205959471726899,0.0,0.0,0.0,0.0,24.815862540169096,-7.550963536292144,99.53449928640839,24.632760282975813,-77.73757464414932
2024-01-01 10:00:01,6,-40.81481271050958,-29.766245306257158,49.805483319841144,-0.02838121186371012,-0.7208614044671755,0.3523926027753319,0.0,0.0,0.0,0.0,26.034161725875062,-92.25464175550134,99.75566001832597,25.340313831110066,-77.75055588644213
2024-01-01 10:00:01,7,-14.7125577524778,-47.03468557323693,50.74261401337541,0.5348984488365378,0.349808567007706,1.2364648419641,0.0,0.0,0.0,0.0,62.665645683095164,33.18355931742047,98.58428030864384,25.319521714354636,-75.56398435675345
2024-01-01 10:00:01,8,16.423553326196473,-46.79726166681971,49.791616952499794,0.0768847312692067,0.5326298368324274,-0.23291030000246593,0.0,0.0,0.0,0.0,-23.402855724078364,81.78613213675567,99.49563802545343,24.914542176369938,-76.64211479823828
2024-01-01 10:00:01,9,40.84746460506115,-28.849959809865336,49.381825768543656,0.06968034660751243,-0.19744387988415824,-0.6997943868733714,0.0,0.0,0.0,0.0,-73.34280112411642,-70.56144342682492,100.0,25.33098542686707,-74.26205676287559
2024-01-01 10:00:02,0,50.77960674108258,1.3836506992431084,49.96520947796569,0.020591792045301816,1.000735719896443,-0.017715377026377155,-0.4900660804863648,0.5486885899641855,0.3232040370318998,30.0,-1.0139496039969902,88.82121095125841,100.0,25.298927856211385,-75.79441765604682
2024-01-01 10:00:02,1,40.30055308977837,30.366447433246094,50.28577355591762,0.37512524986991735,0.35647345057071433,-0.08937161455358478,1.102920881366586,-0.6781843511639138,-0.550429307363153,-30.0,-9.798513726315852,43.53958470100509,100.0,25.159107033524833,-79.3757190757786
2024-01-01 10:00:02,2,14.576141471910605,48.8313570753857,50.722718350125845,-0.3374822467369949,0.6885044769261981,0.10589827691335074,0.2493967312361871,0.6215598504641449,0.2630277271194217,-30.0,7.863375004065608,116.11257420977178,100.0,25.326545094030735,-73.93407598398768
2024-01-01 10:00:02,3,-16.7691475824348,47.775679728295714,49.82848751957802,-0.05018277414642114,0.7333574340649989,-0.6797018923498186,1.8172610741485258,2.0037890932845244,-1.4505526348496929,30.0,-42.75873916062414,93.91457942740928,98.97243438294707,24.93446221455007,-79.08683795779729
2024-01-01 10:00:02,4,-42.53657842232372,28.59972993760019,49.63158447152703,-1.4872971269055526,-1.05168257460004,-0.7492412900348029,-0.9527864396182508,-2.0761234277195975,-1.2362804705817254,-30.0,-22.358246437908715,-144.73548985401007,100.0,25.3561197099868,-75.23341485323999
2024-01-01 10:00:02,5,-49.585092871475105,-0.41727072253957287,50.2070792728627,0.019221488018160926,-0.08896451687098106,0.5234399886083878,-1.5256441085773318,0.11581900775986875,-0.19715595856430213,-30.0,80.13586439885285,-77.80819647126971,99.51784118526702,25.150922614505088,-77.18194827242084
2024-01-01 10:00:02,6,-39.777175412305205,-30.421720013737865,49.67420515839081,1.0376372982043733,-0.6554747074807068,-0.13127816145033222,1.0660185100680835,0.0653866969864687,-0.48367076422566413,30.0,-6.105282596073979,-32.28057157385802,100.0,25.44578255737649,-75.76984582831484
2024-01-01 10:00:02,7,-13.76587560441987,-46.967142398387416,51.038472336636715,0.9466821480579295,0.06754317484951144,0.29585832326130657,0.4117836992213917,-0.2822653921581946,-0.9406065187027934,-30.0,17.31376449827408,4.080981449395086,100.0,25.12857485356508,-79.29802195950255
2024-01-01 10:00:02,8,16.445953167832712,-47.038186578354306,49.51028749508641,0.02239984163623987,-0.2409249115345986,-0.2813294574133849,-0.054484889632966826,-0.773554748367026,-0.048419157410918956,-30.0,-49.30205229348947,-84.68823131824915,99.75418376918,24.213338621310626,-79.14912055141548
2024-01-01 10:00:02,9,41.16981404520381,-29.676318461528904,49.96536369673425,0.3223494401426592,-0.8263586516635684,0.5835379281905944,0.25266909353514677,-0.6289147717794101,1.2833323150639657,9.357067597914863,33.33989764382881,-68.69002990724195,100.0,24.860813692504436,-80.04547614503589
2024-01-01 10:00:03,0,50.24878170924236,1.268066163718552,50.06695515561209,-0.530825031840223,-0.11558453552455639,0.10174567764639875,-0.5514168238855248,-1.1163202554209994,0.1194610546727759,-30.0,10.607817036424889,-167.71587290749218,100.0,25.27957376438279,-78.32078254393812
2024-01-01 10:00:03,1,40.47811446906031,29.827202374136153,51.14762496246184,0.17756137928193994,-0.5392450591099411,0.8618514065442184,-0.19756387058797742,-0.8957185096806555,0.9512230210978032,-30.0,56.62594979600178,-71.77443799024235,99.6251133854282,25.162093283271023,-78.86637546085679
2024-01-01 10:00:03,2,13.724832555756885,48.124924289775706,50.729904483898245,-0.8513089161537195,-0.7064327856099908,0.007186133772400183,-0.5138266694167246,-1.3949372625361889,-0.09871214314095056,-30.0,0.37218698599699374,-140.3134489868465,99.72516206661122,24.67992897045332,-76.29969795936704
2024-01-01 10:00:03,3,-17.14894308635635,46.98153600203423,50.77211137256617,-0.3797955039215495,-0.7941437262614812,0.9436238529881535,-0.32961272977512834,-1.52750116032648,1.6233257453379721,-30.0,46.98877754183665,-115.55923911901174,100.0,24.761178497270553,-76.04281960089808
2024-01-01 10:00:03,4,-42.04056742781111,27.01784503051554,50.738151291456134,0.4960109945126092,-1.5818849070846497,1.1065668199291068,1.9833081214181618,-0.5302023324846097,1.8558081099639097,30.0,33.722345509438746,-72.59082139693237,100.0,25.047503044737393,-74.0158234132849
2024-01-01 10:00:03,5,-50.09356632112512,-1.5351020659696233,51.194096902822864,-0.5084734496500118,-1.1178313434300504,0.9870176299601638,-0.5276949376681728,-1.0288668265590695,0.46357764135177604,-30.0,38.78993518635406,-114.45959774497796,99.33927697057584,25.534954954307445,-77.90876698026914
2024-01-01 10:00:03,6,-39.29715102340923,-30.16138805038252,49.9494494485567,0.480024388895977,0.2603319633553447,0.2752442901658867,-0.5576129093083964,0.9158066708360515,0.4065224516162189,30.0,26.75005385377143,28.47233615926549,100.0,25.16220422854809,-76.18808336869616
2024-01-01 10:00:03,7,-14.656474590857586,-48.235720984782134,50.38513810790751,-0.8905989864377162,-1.2685785863947174,-0.6533342287292072,-1.8372811344956457,-1.3361217612442289,-0.9491925519905138,-30.0,-22.855891230011412,-125.07057408249204,99.73556862397417,24.938697376131433,-77.07725948550011
2024-01-01 10:00:03,8,17.425733588450314,-46.15623412211267,49.992352679685496,0.9797804206176011,0.8819524562416348,0.48206518459908665,0.9573805789813612,1.1228773677762334,0.7633946420124715,30.0,20.086601625170932,41.99206089475848,99.80783382761054,24.691801996053947,-77.8366718312838
2024-01-01 10:00:03,9,41.6293123974583,-28.363434143017873,49.46848792397025,0.4594983522544922,1.3128843185110313,-0.49687577276399963,0.137148912111833,2.1392429701745996,-1.080413700954594,30.0,-19.65747520946547,70.71038763618637,100.0,25.114334925196,-77.71334927525294
2024-01-01 10:00:04,0,50.08098646883192,1.042826587002809,49.53711455358935,-0.1677952404104417,-0.2252395767157429,-0.5298406020227446,0.3630297914297813,-0.10965504119118652,-0.6315862796691434,30.0,-62.07178807177649,-126.68476204251975,100.0,24.872683990383194,-75.5808620368021
2024-01-01 10:00:04,1,39.09832535487043,31.268802679939906,50.23674362954906,-1.379789114189876,1.4416003058037532,-0.9108813329127798,-1.5573504934718159,1.9808453649136943,-1.7727327394569983,30.0,-24.53514212048772,133.74496092455257,99.43308339904709,24.92264836127028,-80.35122222968971
2024-01-01 10:00:04,2,14.496929554163197,48.44308611382367,50.5443035299165,0.7720969984063117,0.3181618240479622,-0.1856009539817478,1.6234059145600312,1.024594609657953,-0.192787087754148,30.0,-12.53059519966997,22.395331617435637,99.55211014017145,24.914682646355544,-77.56121011156317
2024-01-01 10:00:04,3,-18.131903894320203,47.03691070263067,50.53061145325259,-0.9829608079638525,0.05537470059643823,-0.24149991931358272,-0.6031653040423031,0.8495184268579195,-1.1851237723017363,30.0,-13.782368295874061,176.77567338550563,100.0,25.582880792844094,-76.87157840903322
2024-01-01 10:00:04,4,-41.08717872842583,26.998221351191606,50.959094195977606,0.9533886993852789,-0.01962367932393505,0.22094290452147192,0.4573777048726697,1.5622612277607146,-0.8856239154076349,30.0,13.04500848124939,-1.1791573178216666,99.13660315447095,24.575962943043166,-76.4643776112437
2024-01-01 10:00:04,5,-49.921497676338745,-1.7098945618910935,51.37114286762572,0.1720686447863713,-0.17479249592147017,0.17704596480285772,0.6805420944363831,0.9430388475085802,-0.8099716651573061,30.0,35.82269734693788,-45.44992634752988,100.0,24.301902049017862,-78.3965919135422
2024-01-01 10:00:04,6,-38.3515780821226,-30.198237162694088,51.641345687341165,0.9455729412866276,-0.03684911231156818,1.6918962387844658,0.4655485523906506,-0.2971810756669129,1.4166519486185791,-30.0,60.781376753175735,-2.2316954143991037,100.0,25.132812544121467,-76.35509768146699
2024-01-01 10:00:04,7,-13.440087888079079,-48.61580127453361,50.19498300158814,1.2163867027785074,-0.3800802897514757,-0.1901551063193665,2.1069856892162235,0.8884982966432418,0.4631791224098407,30.0,-8.48667275293434,-17.352284305825187,99.83755245813855,24.817249189758297,-77.21224569767281
2024-01-01 10:00:04,8,17.3297110141363,-46.93149051923883,51.284813791311755,-0.09602257431401284,-0.7752563971261566,1.2924611116262597,-1.075802994931614,-1.6572088533677913,0.810395927027173,-30.0,58.85068570767164,-97.06064532501631,99.68332515113401,24.973368930300193,-75.78050455212967
2024-01-01 10:00:04,9,41.61633999322194,-27.35999116105808,49.89650351068415,-0.012972404236357704,1.0034429819597932,0.4280155867138973,-0.4724707564908499,-0.30944133655123807,0.9248913594778969,30.0,23.098798113012712,90.74067248767327,100.0,25.075332958857896,-77.41890619360801
2024-01-01 10:00:05,0,49.65636925512783,1.9925429033667048,50.65629074953178,-0.42461721370408867,0.9497163163638958,1.1191761959424298,-0.256821973293647,1.1749558930796387,1.6490167979651744,30.0,47.09134828963848,114.08937070461323,99.64180162384594,25.306429381336724,-77.69044017590866
2024-01-01 10:00:05,1,38.58017494406407,31.616522150804585,51.02023123754136,-0.5181504108063635,0.34771947086467847,0.7834876079922992,0.8616387033835124,-1.0938808349390747,1.694368940905079,30.0,51.46436605208662,146.1352973702052,99.52403539651885,24.987569256210932,-77.12100539170386
2024-01-01 10:00:05,2,13.686796617463557,48.15589066906907,50.00417603071488,-0.8101329366996399,-0.2871954447545946,-0.540127499201617,-1.5822299351059517,-0.6053572688025568,-0.35452654521986915,-30.0,-32.14511560458701,-160.4803747859626,99.65198121419733,25.29303722713384,-75.90326228046524
2024-01-01 10:00:05,3,-18.303899323876898,46.89920756152265,50.40920823886808,-0.171995429556695,-0.13770314110801962,-0.12140321438450741,0.8109653784071575,-0.19307784170445785,0.12009670492907532,-30.0,-28.855221509357953,-141.31850515602292,99.11687273283226,24.934685250641916,-76.81049790757467
2024-01-01 10:00:05,4,-40.817805952563994,27.227551595591795,50.0474928051471,0.2693727758618394,0.22933024440018812,-0.911601390830505,-0.6840159235234395,0.24895392372412317,-1.1325442953519769,30.0,-68.7899313091177,40.40937883382307,100.0,25.376155673441758,-78.0522581309557
2024-01-01 10:00:05,5,-50.42376576387019,-3.965675825736663,50.547021917277924,-0.5022680875314478,-2.2557812638455697,-0.8241209503477975,-0.6743367323178191,-2.0809887679240995,-1.0011669151506553,-30.0,-19.626466025419152,-102.55260706212157,100.0,25.014704853326347,-77.80285343295469
2024-01-01 10:00:05,6,-39.05066152673782,-31.42565435096908,50.30224055718676,-0.6990834446152192,-1.2274171882749911,-1.3391051301544081,-1.6446563859018468,-1.190568075963423,-3.031001368938874,-30.0,-43.47126487561238,-119.66395744225434,99.08299737029147,25.179542511019022,-77.02587624359312
2024-01-01 10:00:05,7,-12.69046354751486,-47.779841262878634,50.23512349241309,0.7496243405642193,0.8359600116549757,0.040140490824946085,-0.466762362214288,1.2160403014064514,0.23029559714431258,30.0,2.0474023402208488,48.116699244101724,99.7313033094088,24.600413522732147,-79.51137376779494
2024-01-01 10:00:05,8,18.0656249789671,-46.68834443628342,51.212399468103975,0.7359139648308002,0.24314608295540552,-0.07241432320778074,0.831936539144813,1.018402480081562,-1.3648754348340404,30.0,-5.337810279601123,18.283562739958477,99.96060244952288,25.12100783209825,-76.45316818446025
2024-01-01 10:00:05,9,41.94301594895754,-27.650569878507735,50.998493592036546,0.3266759557355954,-0.29057871744965524,1.1019900813523975,0.3396483599719531,-1.2940216994094484,0.6739744946385002,-30.0,68.3594720661721,-41.65313753092175,99.60426804811365,25.053107371475328,-78.28885446548756
2024-01-01 10:00:06,0,49.4560149589996,2.292048473304584,51.33138542090537,-0.20035429612822497,0.299505569937879,0.6750946713735928,0.2242629175758637,-0.6502107464260167,-0.444081524568837,30.0,61.90833976660902,123.78054947108295,99.6790734418449,25.225477551709453,-80.62685810869
2024-01-01 10:00:06,1,38.85226607372574,31.490914931507408,52.40423606785243,0.2720911296616677,-0.12560721929717644,1.3840048303110706,0.7902415404680312,-0.4733266901618549,0.6005172223187714,-30.0,77.78212503398117,-24.779775061736085,100.0,25.293043397524585,-75.59473650510833
2024-01-01 10:00:06,2,12.923466755553369,48.20466712725474,51.9564455050048,-0.7633298619101883,0.048776458185663785,1.9522694742899205,0.04680307478945167,0.33597190294025836,2.4923969734915374,30.0,68.60507232030697,176.34379458707298,100.0,25.287476643031884,-77.73756534711002
2024-01-01 10:00:06,3,-18.840107826936176,46.50379325223935,50.07743067495997,-0.536208503059278,-0.39541430928330357,-0.33177756390811197,-0.36421307350258303,-0.25771116817528394,-0.21037434952360456,-11.377257563932659,-26.472713904776498,-143.59395666880945,99.31686656996467,25.611976784941202,-76.57718777266643
2024-01-01 10:00:06,4,-42.1767817517224,27.49513391422436,51.25655835237958,-1.358975799158408,0.26758231863256654,1.209065547232477,-1.6283485750202473,0.03825207423237842,2.120666938062982,30.0,41.11862359376195,168.8609550494557,99.43806462921066,25.273350853756625,-78.50869407695602
2024-01-01 10:00:06,5,-49.564606018145895,-3.424663249847846,50.85386222823927,0.8591597457242983,0.5410125758888169,0.30684031096134845,1.3614278332557461,2.7967938397343866,1.130961261309146,30.0,16.815554945575144,32.19860605549337,100.0,25.15421501740265,-76.11036422699128
2024-01-01 10:00:06,6,-38.39091949640543,-32.3455769404584,50.47114651481248,0.6597420303323887,-0.919922589489321,0.16890595762572502,1.3588254749476079,0.3074945987856701,1.5080110877801332,30.0,8.486200771402558,-54.35299705228626,100.0,25.262366040470976,-79.92915207891957
2024-01-01 10:00:06,7,-12.695614899926408,-48.05228585862181,50.51871107855119,-0.005151352411548515,-0.27244459574317403,0.2835875861381041,-0.7547756929757679,-1.1084046073981497,0.243447095313158,-30.0,46.142948693393805,-91.083213215356,100.0,24.803932794922027,-75.43802400051392
2024-01-01 10:00:06,8,19.145924911789916,-46.22729539990081,51.33733845819394,1.0802999328228147,0.46104903638261163,0.12493899008996578,0.3443859679920145,0.21790295342720611,0.19735331329774652,24.140979710706656,6.071721247085521,23.111758682099808,100.0,24.975336162988395,-75.81743599706871
2024-01-01 10:00:06,9,43.454357942516516,-27.270745818023443,49.70516603573688,1.511341993558979,0.3798240604842924,-1.2933275562996656,1.1846660378233835,0.6704027779339476,-2.395317637652063,30.0,-39.6906278780449,14.1071743639967,100.0,25.41689980184185,-77.79239133127298
2024-01-01 10:00:07,0,49.764661862420716,3.5309064692206005,49.98534148011445,0.30864690342111345,1.2388579959160166,-1.3460439407909206,0.5090011995493384,0.9393524259781376,-2.0211386121645134,-30.0,-46.51390992444357,76.01023661536092,99.95516069956399,24.747635657683606,-79.0658097482782
2024-01-01 10:00:07,1,38.89550372504738,32.6132070765796,50.52123345785008,0.0432376513216397,1.1222921450721906,-1.8830026100023503,-0.228853478340028,1.247899364369367,-3.267007440313421,30.0,-59.18586104195614,87.79370250280506,99.96800249342654,25.67544564388436,-74.5577037235094
2024-01-01 10:00:07,2,12.21351552230054,48.87197987339392,50.38355302511508,-0.7099512332528288,0.6673127461391815,-1.572892479889724,0.05337862865735943,0.6185362879535177,-3.5251619541796444,-30.0,-58.22356472384669,136.77324415834337,99.76996028194617,25.31180334300771,-77.26176156635626
2024-01-01 10:00:07,3,-19.059240275046943,46.795672388926626,50.541678116393065,-0.21913244811076638,0.29187913668727816,0.4642474414330948,0.31707605494851165,0.6872934459705817,0.7960250053412068,30.0,51.826220247819606,126.89791526373322,100.0,25.12386023987583,-77.587139220059
2024-01-01 10:00:07,4,-42.424946199342216,26.028575917867958,50.819205757264506,-0.24816444761981415,-1.4665579963564035,-0.4373525951150725,1.1108113515385938,-1.73414031498897,-1.6464181423475495,-30.0,-16.38528968691661,-99.60435755957865,100.0,25.159112095990345,-76.13702718227296
2024-01-01 10:00:07,5,-49.22407584298787,-4.375526479955737,50.19016029321492,0.34053017515802253,-0.950863230107891,-0.6637019350243492,-0.5186295705662758,-1.4918758059967079,-0.9705422459856976,-30.0,-33.31011980880432,-70.2961627032664,99.75738122225168,25.647859286850494,-76.33712517707178
2024-01-01 10:00:07,6,-37.89007191230915,-32.55014740133506,50.568190170253956,0.5008475840962774,-0.20457046087665987,0.09704365544147464,-0.15889444623611126,0.7153521286126612,-0.07186230218425038,30.0,10.169188044855801,-22.21748764401433,99.5972916026993,25.01480182901263,-76.46715715923669
2024-01-01 10:00:07,7,-13.011643012955485,-48.59978840742507,50.39392968347376,-0.31602811302907696,-0.5475025488032657,-0.12478139507743435,-0.31087676061752845,-0.2750579530600916,-0.40836898121553844,-30.0,-11.165922864926515,-119.99429909046444,99.52319849002232,24.873845684212885,-79.36585339954802
2024-01-01 10:00:07,8,18.919268640648642,-47.14266607286781,51.33565991282948,-0.22665627114127318,-0.9153706729670006,-0.001678545364462991,-1.3069562039640878,-1.3764197093496122,-0.12661753545442878,-30.0,-0.1019851268730107,-103.90736832624489,99.39167949879578,25.0083758707465,-74.89677678664631
2024-01-01 10:00:07,9,42.46050930290872,-26.75700713140581,51.24153228243106,-0.9938486396077977,0.5137386866176321,1.536366246694179,-2.5051906331667766,0.1339146261333397,2.8296938029938445,30.0,53.938005931759115,152.66472385334552,100.0,25.1314869197526,-78.74203954446183
2024-01-01 10:00:08,0,49.56789395286838,4.051195993313567,50.22109424436008,-0.19676790955233514,0.5202895240929668,0.23575276424563185,-0.5054148129734486,-0.7185684718230498,1.5817967050365525,30.0,22.968296965759684,110.71607959139467,99.6354823030087,24.894445384227954,-77.96869008981434
2024-01-01 10:00:08,1,37.660259199066395,32.38796485937786,51.33729430526747,-1.2352445259809812,-0.22524221720173898,0.8160608474173898,-1.278482177302621,-1.3475343622739295,2.69906345741974,-30.0,33.0210648623061,-169.66586792050083,100.0,25.512669632992157,-74.10149823417937
2024-01-01 10:00:08,2,12.233564052532852,48.62201331028365,50.734322839156015,0.020048530232312345,-0.2499665631102701,0.35076981404093743,0.7299997634851412,-0.9172793092494516,1.9236622939306613,-30.0,54.43859883769924,-85.41441663544877,100.0,25.573396689945806,-79.37924661645488
2024-01-01 10:00:08,3,-18.771867445051317,46.08752178922931,50.31527392377996,0.2873728299956255,-0.7081505996973192,-0.22640419261310285,0.5065052781063919,-1.0000297363845974,-0.6906516340461977,-30.0,-16.501822944279773,-67.91231646122523,99.37941555360209,25.002577950666925,-76.11593977311647
2024-01-01 10:00:08,4,-42.71886748387115,26.12222511632992,50.60322683910371,-0.29392128452893473,0.09364919846196074,-0.2159789181607934,-0.04575683690912058,1.5602071948183642,0.22137367695427912,30.0,-34.997372145691315,162.32708096675324,100.0,25.501810969213,-74.52909274805039
2024-01-01 10:00:08,5,-49.65200694713447,-4.482693906453595,50.56059712600507,-0.4279311041465945,-0.10716742649785793,0.3704368327901477,-0.768461279304617,0.843695803610033,1.0341387678144969,-30.0,40.0206710514727,-165.94049029648917,99.9010059721669,24.605661537567997,-72.2742524538865
2024-01-01 10:00:08,6,-37.71338076504803,-32.62217780217181,50.50898311583363,0.17669114726112412,-0.07203040083675205,-0.0592070544203267,-0.32415643683515327,0.13254006003990781,-0.15625070986180134,0.192975035213383,-17.2388339960599,-22.178892636971653,99.9572845194389,24.975782723409598,-81.58752870222943
2024-01-01 10:00:08,7,-11.685077680083156,-47.857478290623646,51.086268208633,1.3265653328723293,0.742310116801427,0.6923385251592435,1.6425934459014062,1.2898126656046927,0.8171199202366779,30.0,24.48672429657416,29.230197466444253,99.6153449030166,24.822290044515974,-75.22409644513884
2024-01-01 10:00:08,8,19.240869703543915,-46.789348144543325,50.11607110674391,0.32160106289527235,0.3533179283244863,-1.219588806085568,0.5482573340365455,1.2686886012914869,-1.217910260721105,30.0,-68.6075407923201,47.69055485272755,99.53404199484038,25.504617698244598,-74.01851611272569
2024-01-01 10:00:08,9,42.13782793411211,-26.005645424536475,50.975237455678794,-0.3226813687966086,0.7513617068693357,-0.2662948267522651,0.6711672708111891,0.23762302025170357,-1.802661073446444,-30.0,-18.038091255829,113.24168911088805,100.0,24.953093126287406,-76.65880737713996
2024-01-01 10:00:09,0,49.98548565977255,4.193608114941149,50.74930099223248,0.4175917069041688,0.142412121627582,0.528206747872396,0.6143596164565039,-0.3778774024653848,0.2924539836267641,-30.0,50.12822317957501,18.831017091171617,100.0,25.510902624922565,-74.45306916395599
2024-01-01 10:00:09,1,37.150367875704276,32.37187819306229,51.16492163380963,-0.509891323362119,-0.016086666315572984,-0.1723726714578433,0.7253532026188623,0.209155550886166,-0.9884335188752331,-30.0,-18.669573583169402,-178.19296304564446,100.0,24.83068337462047,-78.53179090237973
2024-01-01 10:00:09,2,11.064075954666007,48.10336463926807,50.769884556871546,-1.1694880978668447,-0.5186486710155762,0.03556171771553096,-1.189536628099157,-0.2686821079053061,-0.3152080963254065,-30.0,1.5922422903021802,-156.08350389433542,100.0,24.64930299691905,-76.96274042773709
2024-01-01 10:00:09,3,-19.422342377894143,46.25174749890235,50.27993065221541,-0.6504749328428261,0.1642257096730404,-0.03534327156454964,-0.9378477628384516,0.8723763093703596,0.1910609210485532,30.0,-3.0156400869910223,165.83061318004616,99.82190869347727,25.4090830945204,-76.58720319515093
2024-01-01 10:00:09,4,-42.8327348889075,24.70265569025253,51.07458688654521,-0.11386740503635195,-1.4195694260773877,0.4713600474415003,0.18005387949258278,-1.5132186245393484,0.6873389656022937,-30.0,18.313578327239224,-94.58602669955965,100.0,25.305977674325913,-81.10543613587383
2024-01-01 10:00:09,5,-49.62660479385589,-5.088618851210608,49.95275588647937,0.02540215327857709,-0.605924944757013,-0.6078412395256976,0.4533332574251716,-0.49875751825915504,-0.9782780723158453,30.0,-45.065305925277514,-87.59939836583953,100.0,25.28486265090142,-74.60353034755212
2024-01-01 10:00:09,6,-37.30787132105238,-32.91394181322291,50.99765268718344,0.4055094439956477,-0.29176401105110017,0.48866957134980993,0.22881829673452359,-0.21973361021434812,0.5478766257701366,-30.0,44.36839114871829,-35.73501246837539,99.90107482147971,25.412422489258194,-79.36539492737167
2024-01-01 10:00:09,7,-11.40538222648032,-48.779879643506455,50.388808971294665,0.27969545360283554,-0.9224013528828081,-0.6974592373383359,-1.0468698792694937,-1.6647114696842351,-1.3897977624975795,-30.0,-35.88948898727507,-73.13136742196308,99.8417096908137,25.390409134231295,-78.00295839897798
2024-01-01 10:00:09,8,19.467982730954915,-46.07353875042879,51.1077521991146,0.2271130274110007,0.7158093941145367,0.9916810923706905,-0.09448803548427165,0.3624914657900504,2.2112698984562584,30.0,52.864275264265416,72.39673380546742,99.71973878513622,25.30558876848733,-77.81192733973995
2024-01-01 10:00:09,9,43.0496397310917,-25.500923776856677,51.497067425700024,0.9118117969795918,0.5047216476797978,0.5218299700212299,1.2344931657762004,-0.2466400591895379,0.788124796773495,-30.0,26.597528389916192,28.966154608512486,100.0,25.653372497459603,-78.90833056217309
2024-01-01 10:00:10,0,49.449354957786596,5.917809924595876,50.98659804160634,-0.5361307019859538,1.7242018096547271,0.23729704937386487,-0.9537224088901226,1.5817896880271451,-0.2909096984985311,30.0,7.486932013037538,107.27278313857168,99.58784829226137,25.281025229926822,-75.37727808461058
2024-01-01 10:00:10,1,37.47433168196138,32.89562848074479,50.4477448647677,0.32396380625710464,0.5237502876825033,-0.7171767690419273,0.8338551296192236,0.5398369539980763,-0.544804097584084,30.0,-49.34700044448923,58.2612899355959,100.0,24.850525852616432,-76.63844397726528
2024-01-01 10:00:10,2,10.899381655085365,48.08507775422484,51.504181165973854,-0.16469429958064197,-0.018286885043231393,0.7342966091023087,1.0047937982862027,0.5003617859723448,0.6987348913867777,-30.0,77.28325270809843,-173.66409757261056,100.0,24.811866854181673,-75.31737848202795
2024-01-01 10:00:10,3,-19.553156029215426,46.53317835705837,51.306684469917016,-0.13081365132128298,0.2814308581560212,1.0267538177016036,0.5196612815215431,0.1172051484829808,1.0620970892661532,-30.0,73.18199006041884,114.92977321705379,100.0,25.176420977847922,-77.03272009821274
2024-01-01 10:00:10,4,-42.61459338212275,25.10899970860304,51.05621538449792,0.21814150678475386,0.4063440183505094,-0.01837150204729454,0.3320089118211058,1.825913444427897,-0.4897315494887948,30.0,-2.281144499131191,61.771341101150746,100.0,25.098735180841516,-77.1952095995027
2024-01-01 10:00:10,5,-49.99980739216859,-4.860690446512653,51.37204280618505,-0.37320259831270164,0.2279284046979555,1.4192869197056766,-0.3986047515912787,0.8338533494549685,2.027128159231374,30.0,72.8752716655209,148.58606936448916,100.0,25.40459386528055,-81.24972716825776
2024-01-01 10:00:10,6,-37.65759317851666,-33.578310835977774,51.350796571247294,-0.3497218574642815,-0.6643690227548618,0.35314388406385433,-0.7552313014599292,-0.3726050117037616,-0.1355256872859556,-30.0,25.190443871293404,-117.76218396448925,100.0,25.13106048766546,-74.6147176703615
2024-01-01 10:00:10,7,-10.108029729564377,-49.07142793152074,51.59381829616493,1.2973524969159431,-0.29154828801428323,1.205009324870268,1.0176570433131076,0.6308530648685249,1.902468562208604,30.0,42.183526908413114,-12.665416950629242,100.0,25.4936881686972,-76.38354501387758
2024-01-01 10:00:10,8,20.231146652045243,-45.25207313917527,51.54594358043588,0.763163921090328,0.8214656112535152,0.4381913813212819,0.5360508936793273,0.10565621713897855,-0.5534897110494086,-30.0,21.345682717238653,47.10707592891451,99.9934964656626,25.527260935323284,-74.47718313221401
2024-01-01 10:00:10,9,43.82744087975472,-25.152885556906128,51.416623433215605,0.7778011486630163,0.3480382199505492,-0.08044399248441891,-0.1340106483165755,-0.1566834277292486,-0.6022739625056488,-24.29672273897994,-5.393010194525175,24.106810060716498,99.9099409816082,25.089429816336192,-78.92406646636306
2024-01-01 10:00:11,0,49.16894943335689,5.900187497910335,50.480726290418836,-0.28040552442970323,-0.01762242668554137,-0.5058717511875059,0.25572517755625057,-1.7418242363402685,-0.7431688005613708,-30.0,-60.952418227552506,-176.40390641394725,100.0,25.03767839907504,-73.86455456244852
2024-01-01 10:00:11,1,37.69901392947221,33.830764552449736,50.40938018354033,0.22468224751082744,0.935136071704946,-0.03836468122737102,-0.0992815587462772,0.41138578402244264,0.6788120878145563,30.0,-2.2843475470531174,76.48980806824372,100.0,25.04627987818775,-78.00685152012557
2024-01-01 10:00:11,2,10.003028651547158,49.08395258934129,49.97414091713431,-0.8963530035382075,0.998874835116446,-1.5300402488395477,-0.7316587039575655,1.0171617201596774,-2.2643368579418564,30.0,-48.74410522387434,131.9036183760556,99.54487936930092,25.3753458928901,-75.67630033565261
2024-01-01 10:00:11,3,-20.539047390270515,46.575100916660034,51.36067568063797,-0.9858913610550886,0.04192255960166591,0.0539912107209517,-0.8550777097338056,-0.2395082985543553,-0.9727626069806519,30.0,3.1317821053585018,177.56510740620044,100.0,25.629994547866385,-74.89066720332887
2024-01-01 10:00:11,4,-44.235514892483394,25.031171453091243,51.554650244303026,-1.6209215103606454,-0.07782825551179684,0.4984348598051085,-1.8390630171453992,-0.4841722738623062,0.516806361852403,-30.0,17.074186831216046,-177.25106461520383,100.0,25.507276428976976,-79.84656805722878
2024-01-01 10:00:11,5,-50.33738313589782,-5.937061139985386,51.46630085714116,-0.33757574372922505,-1.0763706934727333,0.09425805095610684,0.035626854583476586,-1.3042990981706888,-1.3250288687495697,-30.0,4.776383423949712,-107.4126796990268,99.48731490714235,24.949993478088306,-75.67906536266585
2024-01-01 10:00:11,6,-36.24996591120802,-33.90646498406626,51.45240981426015,1.4076272673086407,-0.32815414808848686,0.10161324301285646,1.7573491247729223,0.3362148746663749,-0.25153064105099787,30.0,4.021419696459851,-13.12274169485312,99.38023475185192,24.902665469286276,-79.37190264381402
2024-01-01 10:00:11,7,-9.482341288431929,-48.32845511509203,51.37572539367775,0.6256884411324481,0.7429728164287113,-0.21809290248718582,-0.671664055783495,1.0345211044429945,-1.4231022273574538,30.0,-12.654677276749517,49.8978687221163,100.0,25.280892891087376,-78.65126971998207
2024-01-01 10:00:11,8,21.263949876238456,-45.56204302659922,50.52827521040863,1.0328032241932128,-0.3099698874239465,-1.017668370027252,0.26963930310288475,-1.1314354986774617,-1.4558597513485338,-30.0,-43.34261950188329,-16.705805452230045,100.0,24.765424050070926,-79.86986959102971
2024-01-01 10:00:11,9,44.38198165110581,-25.40257276766954,52.37737340974989,0.5545407713510926,-0.24968721076341183,0.960749976534288,-0.22326037731192372,-0.597725430713961,1.0411939690187069,-30.0,57.665944962356114,-24.240105161938093,99.24917376471636,25.170016429795876,-74.49121588166871
2024-01-01 10:00:12,0,49.74486359019569,5.0057753025060805,50.52442010768646,0.5759141568387989,-0.8944121954042545,0.04369381726762356,0.8563196812685021,-0.8767897687187132,0.5495655684551295,30.0,2.3520278166138233,-57.222417774862045,99.88324694893996,24.96818082585018,-73.84899110822744
2024-01-01 10:00:12,1,35.99488666216787,33.83961824549392,51.55493403563449,-1.7041272673043366,0.008853693044180488,1.1455538520941602,-1.928809514815164,-0.9262823786607655,1.1839185333215312,30.0,33.90955103238195,179.7023258238519,100.0,25.255399994565252,-73.90007386774055
2024-01-01 10:00:12,2,9.759576821271212,48.53893801133793,51.01278394965021,-0.24345183027594608,-0.5450145780033537,1.0386430325159068,0.6529011732622614,-1.5438894131197998,2.5686832813554545,-30.0,60.113658343741335,-114.06977371578152,99.56502818878117,25.469747245702614,-76.42993753762823
2024-01-01 10:00:12,3,-20.933779021829917,46.21114990664138,51.98984750246285,-0.3947316315594023,-0.3639510100186527,0.6291718218248832,0.5911597294956863,-0.4058735696203186,0.5751806111039315,-30.0,49.5238363013522,-137.32328107206658,99.78011492397081,25.16076634692611,-80.02875337818547
2024-01-01 10:00:12,4,-42.857764858962724,23.148122002953954,51.45277255754431,1.3777500335206696,-1.883049450137289,-0.10187768675871922,2.998671543881315,-1.8052211946254921,-0.6003125465638277,30.0,-2.50013855243428,-53.808596640301154,99.8778652795147,25.29175500956748,-76.97894536183468
2024-01-01 10:00:12,5,-50.24106693390594,-6.469229300745588,51.90691451653528,0.09631620199187552,-0.532168160760202,0.4406136593941241,0.43389194572110057,0.5442025327125313,0.34635560843801727,30.0,39.17050074071229,-79.74118832241744,100.0,25.301191455449636,-71.83702347637315
2024-01-01 10:00:12,6,-36.35937106831605,-33.62655167348537,51.14542202425977,-0.10940515710802856,0.27991331058088775,-0.30698779000037746,-1.5170324244166693,0.6080674586693746,-0.4086010330132339,30.0,-45.60859631736447,111.34822792180438,99.73532540596871,25.00397538149612,-76.26585490299985
2024-01-01 10:00:12,7,-9.307751747707037,-48.707813155351495,51.363943700489315,0.17458954072489163,-0.3793580402594685,-0.01178169318843203,-0.4510989004075565,-1.1223308566881798,0.2063112092987538,-30.0,-1.6160297389369747,-65.2869945587056,99.8158682152319,25.36146385087109,-78.43488074174894
2024-01-01 10:00:12,8,20.683614637015015,-46.175315595955034,50.36770942951491,-0.5803352392234409,-0.6132725693558143,-0.16056578089371953,-1.6131384634166537,-0.3033026819318678,0.8571025891335324,-30.0,-10.767344639141387,-133.41933740576422,100.0,25.06016675813768,-74.695697866476
2024-01-01 10:00:12,9,43.701599813973765,-24.189462106265523,51.53630735814827,-0.680381837132046,1.2131106614040164,-0.8410660516016222,-1.2349226084831386,1.4627978721674282,-1.8018160281359101,30.0,-31.161317205777145,119.28620106336778,99.0891200143453,25.261206382192995,-79.82588243472999
2024-01-01 10:00:13,0,49.67652530367396,6.8509404209824485,51.37108690005576,-0.06833828652172969,1.845165118476368,0.8466667923692981,-0.6442524433605286,2.7395773138806225,0.8029729751016745,30.0,24.633469876365268,92.12106035421007,100.0,25.089843843656745,-78.31083378814465
2024-01-01 10:00:13,1,36.59717368927579,34.950923383066005,50.54022785573037,0.6022870271079199,1.1113051375720886,-1.0147061799041168,2.3064142944122565,1.102451444527908,-2.160260031998277,-30.0,-38.75612469112291,61.543915567391934,99.86753382845994,25.258938860183665,-74.60236747064823
2024-01-01 10:00:13,2,8.372271231725408,48.713586890825106,51.20362360207354,-1.3873055895458037,0.17464887948717234,0.19083965242332823,-1.1438537592698577,0.7196634574905261,-0.8478033800925786,30.0,7.7719411737793145,172.8247406362103,99.98720421634167,25.440989842985864,-73.69342892424379
2024-01-01 10:00:13,3,-22.20453094156882,44.89652715554483,51.578235907407624,-1.2707519197389026,-1.3146227510965502,-0.41161159505522704,-0.8760202881795003,-0.9506717410778975,-1.0407834168801102,16.47715589757425,-12.68699851318086,-134.02784989255173,100.0,25.108941628098677,-76.08065823713154
2024-01-01 10:00:13,4,-44.78929060725536,24.093040900366475,51.008224661143835,-1.9315257482926356,0.9449188974125207,-0.4445478964004721,-3.309275781813305,2.8279683475498096,-0.3426702096417529,30.0,-11.680791959374993,153.93172474726182,99.8502160690646,25.520955794744026,-73.825195402535
2024-01-01 10:00:13,5,-49.79521063829618,-7.057504310527653,51.35678766810588,0.44585629560975804,-0.5882750097820653,-0.5501268484294002,0.3495400936178825,-0.05610684902186325,-0.9907405078235243,30.0,-36.696601463164086,-52.841346773732404,100.0,25.33964875581876,-75.0967596132226
2024-01-01 10:00:13,6,-35.822107711843685,-34.11132969519927,51.069986622018455,0.5372633564723657,-0.4847780217138933,-0.07543540224131817,0.6466685135803942,-0.764691332294781,0.23155238775905929,-30.0,-5.951229464042639,-42.06024735100084,99.7949268179836,25.8452474809533,-74.09243993661511
2024-01-01 10:00:13,7,-9.651723572976683,-50.09544723891625,51.868159304672446,-0.3439718252696462,-1.3876340835647554,0.5042156041831305,-0.5185613659945378,-1.0082760433052869,0.5159972973715625,-30.0,19.427201862338098,-103.92206258122096,99.46662449949595,25.319700155555353,-77.41229180699173
2024-01-01 10:00:13,8,21.37723768559861,-45.71664824248219,51.94129754528939,0.6936230485835964,0.4586673534728476,1.573588115774477,1.2739582878070372,1.071939922828662,1.7341538966681966,30.0,62.14592022363108,33.47519460145756,100.0,25.166531166874847,-77.9280477982681
2024-01-01 10:00:13,9,44.857492427522835,-23.266812108630315,52.148850217956046,1.1558926135490708,0.922649997635208,0.6125428598077747,1.8362744506811168,-0.2904606637688083,1.4536089114093969,-30.0,22.497712998116498,38.597367390937116,100.0,25.304523280160044,-78.30373082431201
2024-01-01 10:00:14,0,49.45297566943774,6.82660388441718,50.64251724763685,-0.2235496342362211,-0.024336536565268574,-0.7285696524189049,-0.1552113477144914,-1.8695016550416366,-1.575236444788203,-30.0,-72.84734535379766,-173.78701188852196,99.6923515246907,25.12983927229143,-77.53707992939948
2024-01-01 10:00:14,1,36.06593255444493,35.459310683815005,52.04817910805861,-0.5312411348308643,0.5083873007489998,1.5079512523282403,-1.1335281619387843,-0.6029178368230887,2.522657432232357,30.0,64.00525050661757,136.2593127820606,100.0,25.635267214333247,-76.99845971412932
2024-01-01 10:00:14,2,8.528132910561116,49.68589365578414,50.44774268065812,0.15586167883570745,0.9723067649590362,-0.7558809214154181,1.5431672683815112,0.7976578854718639,-0.9467205738387463,-30.0,-37.510207239760895,80.89291221833503,100.0,26.075791085041413,-72.91682053998699
2024-01-01 10:00:14,3,-21.321673137178777,44.34874527720663,51.83570985454066,0.8828578043900421,-0.5477818783381991,0.25747394713303606,2.1536097241289447,0.7668408727583511,0.6690855421882631,30.0,13.918164850179826,-31.81813071677553,99.3024579097115,25.126460764986515,-76.76135546913902
2024-01-01 10:00:14,4,-43.905877352405035,23.67256191875356,51.42329199608493,0.8834132548503248,-0.4204789816129164,0.41506733494109227,2.8149390031429604,-1.365397879025437,0.8596152313415644,-30.0,22.988632675868306,-25.453087791006503,100.0,25.305512669964493,-80.77451400368221
2024-01-01 10:00:14,5,-49.20927657677741,-6.745859957809489,51.328424927332804,0.5859340615187705,0.31164435271816426,-0.02836274077307621,0.14007776590901244,0.8999193625002295,0.521764107656324,30.0,-2.4471624314331195,28.007446385329434,99.4512804671545,25.626020092746543,-78.609884456556
2024-01-01 10:00:14,6,-36.14816476642828,-33.551196940473794,51.78669707815475,-0.3260570545845951,0.5601327547254726,0.7167104561362976,-0.8633204110569608,1.044910776439366,0.7921458583776158,30.0,47.876936326380104,120.20397351888893,99.30887414349085,25.78034752899831,-76.56447654114557
2024-01-01 10:00:14,7,-8.611273695930523,-49.77601613836239,51.406450844626974,1.0404498770461608,0.3194311005538637,-0.4617084600454717,1.384421702315807,1.707065184118619,-0.9659240642286022,30.0,-22.987434872219335,17.067139848276806,100.0,25.490950434491936,-78.29367566667591
2024-01-01 10:00:14,8,22.492761798633452,-44.80739013399118,51.004862016285685,1.1155241130348408,0.9092581084910094,-0.9364355290037025,0.4219010644512444,0.4505907550181618,-2.5100236447781796,28.54054707666908,-33.051564266115,39.183304016791375,100.0,25.426083768482293,-76.49224712189891
2024-01-01 10:00:14,9,44.967345852571,-23.90649383556049,51.78885670075867,0.10985342504816487,-0.6396817269301742,-0.35999351719737405,-1.046039188500906,-1.5623317245653823,-0.9725363770051487,-30.0,-29.014958050871698,-80.25556801611928,100.0,25.065097902007714,-74.68336109445418
2024-01-01 10:00:15,0,49.07863179260476,7.241587238200067,52.00616214641616,-0.374343876832981,0.41498335378288687,1.363644898779306,-0.1507942425967599,0.43931989034815544,2.092214551198211,30.0,67.71415862022982,132.05265924425447,99.74712251940326,25.02809680798466,-78.07394709828547
2024-01-01 10:00:15,1,35.78420875063551,36.27816156847363,51.78224359151463,-0.2817238038094203,0.8188508846586231,-0.2659355165439834,0.24951733102144402,0.31046358390962325,-1.7738867688722237,-30.0,-17.07169148594016,108.9856633618618,99.97301577661393,25.67041970952747,-78.58216071590067
2024-01-01 10:00:15,2,8.145463200083444,49.27826365514582,51.24869750144761,-0.3826697104776713,-0.40763000063832067,0.8009548207894852,-0.5385313893133787,-1.379936765597357,1.5568357422049033,-30.0,55.08310896111606,-133.1910102859864,100.0,25.00712352121158,-76.21764841812625
2024-01-01 10:00:15,3,-22.585844458993435,45.06864559749034,51.194116021172526,-1.2641713218146577,0.7199003202837062,-0.6415938333681339,-2.1470291262047,1.2676821986219053,-0.89906778050117,30.0,-23.79865767120981,150.3400356898456,100.0,25.654724696947238,-76.24470592610079
2024-01-01 10:00:15,4,-44.61674962270298,23.095317645195806,51.94688072475902,-0.7108722702979478,-0.5772442735577528,0.5235887286740919,-1.5942855251482726,-0.15676529194483635,0.10852139373299963,-30.0,29.75987377995969,-140.92262480074373,99.8953821731212,25.45011102681025,-80.61806359721028
2024-01-01 10:00:15,5,-49.83811151306427,-6.65540728565176,51.994205544411294,-0.6288349362868573,0.09045267215772856,0.6657806170784895,-1.2147689978056277,-0.2211916805604357,0.6941433578515657,30.0,46.34171351992519,171.8146237908246,99.97817519340904,25.677991709761198,-75.51033812885484
2024-01-01 10:00:15,6,-35.476483527809265,-35.24436798433578,51.305586679112615,0.6716812386190156,-1.6931710438619874,-0.48111039904213726,0.9977382932036107,-2.25330379858746,-1.1978208551784348,-30.0,-14.795310815855297,-68.36176402873988,100.0,25.830541530422526,-76.58655374948259
2024-01-01 10:00:15,7,-8.072611240110875,-49.83477164539031,50.98124450993748,0.5386624558196473,-0.05875550702792509,-0.4252063346894914,-0.5017874212265134,-0.3781866075817888,0.0365021253559803,-30.0,-38.12198551814448,-6.225022828140679,100.0,25.235235698860727,-77.29440715741536
2024-01-01 10:00:15,8,21.96388967916692,-43.866008119654104,51.66964588645388,-0.5288721194665342,0.9413820143370728,0.6647838701681934,-1.644396232501375,0.032123905846063394,1.601219399171896,30.0,31.619404720848866,119.3274487029745,98.99146046811927,24.932921839597828,-75.21820628562277
2024-01-01 10:00:15,9,44.104801511286496,-23.108729042218844,50.65312987046284,-0.8625443412845044,0.7977647933416456,-1.1357268302958303,-0.9723977663326693,1.4374465202718198,-0.7757333130984563,30.0,-44.0285082040101,137.2343507965758,99.68945590468225,25.232578042160945,-78.32959023531784
2024-01-01 10:00:16,0,49.533173313565584,7.084390253030931,51.73487478777798,0.4545415209608237,-0.1571969851691355,-0.2712873586381761,0.8288853977938047,-0.5721803389520224,-1.634932257417482,-30.0,-29.425533368398014,-19.0772462201737,99.95911574510964,24.77803919042736,-78.60635485119838
2024-01-01 10:00:16,1,35.773311181018435,35.480662684048745,51.18234515665844,-0.010897569617071667,-0.7974988844248827,-0.5998984348561862,0.27082623419234864,-1.6163497690835058,-0.3339629183122028,-30.0,-36.948822755565594,-90.78287995144063,98.92439942654818,25.302268099467003,-84.1412050069304
2024-01-01 10:00:16,2,7.220866521921671,49.95813725488456,52.596689586063746,-0.9245966781617732,0.6798735997387411,1.3479920846161377,-0.5419269676841019,1.0875036003770617,0.5470372638266525,30.0,49.589606871792896,143.67224488571154,100.0,25.411330577669474,-74.17742390365345
2024-01-01 10:00:16,3,-23.995981052452976,43.59826501883439,51.00979253019302,-1.4101365934595407,-1.4703805786559485,-0.18432349097950862,-0.14596527164488293,-2.1902808989396547,0.4572703423886253,-30.0,-5.1697799261271085,-133.80187384831498,99.45673182791569,25.375823769332786,-75.97363023614047
2024-01-01 10:00:16,4,-44.48268120321383,22.96458606536372,50.87845418864198,0.1340684194891537,-0.13073157983208716,-1.0684265361170375,0.8449406897871015,0.4465126937256656,-1.5920152647911294,30.0,-80.05907683956697,-44.27803356900503,99.05676609585295,25.744076696399357,-74.15031651234055
2024-01-01 10:00:16,5,-49.683959777198744,-7.973025064012065,51.16052203761082,0.15415173586552555,-1.3176177783603045,-0.833683506800476,0.7829866721523828,-1.408070450518033,-1.4994641238789654,-30.0,-32.14665583497445,-83.32714296616656,99.79989158389785,25.400459270012117,-77.81762681566997
2024-01-01 10:00:16,6,-35.13353035242714,-35.94090298726542,50.817513610743944,0.342953175382128,-0.696535002929636,-0.4880730683686707,-0.32872806323688764,0.9966360409323514,-0.006962669326533444,22.8801556068656,-32.155359435432445,-63.785732907366764,99.93563252995854,26.04931206960092,-79.38894004075794
2024-01-01 10:00:16,7,-7.554412368534268,-49.54379607792822,51.53527521850553,0.5181988715766073,0.2909755674620911,0.5540307085680496,-0.020463584243040067,0.34973107449001617,0.979237043257541,30.0,42.99141662006829,29.314790679501655,99.2446536350807,25.513010921885073,-73.10858989246267
2024-01-01 10:00:16,8,23.144584248813004,-43.696988403763044,51.66205404270903,1.1806945696460858,0.16901971589106068,-0.007591843744847893,1.70956668911262,-0.7723622984460121,-0.6723757139130413,-30.0,-0.3646880285098621,8.146701933291267,99.88897266923404,25.169007711515835,-78.63065063157458
2024-01-01 10:00:16,9,44.559944252024835,-22.363227136480095,51.023778677496836,0.4551427407383386,0.7455019057387489,0.3706488070339944,1.317687082022843,-0.05226288760289677,1.5063756373298247,-30.0,22.993779818703,58.595160564580965,100.0,25.634415810655405,-77.80184379528373
2024-01-01 10:00:17,0,49.08669720526988,8.120656453196823,51.973273605124504,-0.4464761082957054,1.0362662001658913,0.23839881734652124,-0.9010176292565291,1.1934631853350268,0.5096861759846973,30.0,11.929984521856403,113.30883188655403,100.0,25.66123391929057,-80.94338576855465
2024-01-01 10:00:17,1,34.457992204467054,35.899986928248644,51.561684457278965,-1.3153189765513815,0.419324244199899,0.3793393006205221,-1.3044214069343099,1.2168231286247817,0.9792377354767083,30.0,15.364296685638859,162.31769656806082,100.0,25.25092096046207,-80.09278552896603
2024-01-01 10:00:17,2,6.325992747010752,49.019259302669546,51.165255191871715,-0.894873774910919,-0.9388779522150159,-1.4314343941920313,0.029722903250854138,-1.618751551953757,-2.779426478808169,-30.0,-47.820081104773664,-133.6253483398993,99.80346817667618,25.29796294283132,-76.46507125632614
2024-01-01 10:00:17,3,-23.568998363358975,44.24973788156483,51.40864037853089,0.4269826890940003,0.6514728627304436,0.3988478483378728,1.837119282553541,2.121853441386392,0.5831713393173814,30.0,27.114542322530166,56.75871270233879,99.21522981896968,25.09798615879326,-75.92377610736726
2024-01-01 10:00:17,4,-44.807779827616066,21.879917167683747,52.05617686454108,-0.32509862440223714,-1.0846688976799719,1.1777226758990977,-0.45916704389139085,-0.9539373178478847,2.2461492120161353,-30.0,46.1254471464915,-106.68460549275262,99.7172570890035,25.738333986996814,-76.62103818172251
2024-01-01 10:00:17,5,-49.18724231312155,-8.388240015073194,51.8345598439561,0.49671746407719297,-0.41521495106112916,0.6740378063452823,0.3425657282116674,0.9024028272991753,1.5077213131457583,30.0,46.154654814759425,-39.89284971999918,100.0,25.3780041398997,-79.41658314971788
2024-01-01 10:00:17,6,-34.563616967818554,-35.043295764269715,52.447589206575046,0.5699133846085829,0.8976072229957026,1.6300755958311015,0.22696020922645488,1.5941422259253386,2.118148664199772,30.0,56.884787714851896,57.58750974343713,99.13368085078142,25.179235891653345,-74.4889642805285
2024-01-01 10:00:17,7,-7.363601191734829,-50.20347747554915,51.44091552403231,0.19081117679943915,-0.659681397620929,-0.09435969447321924,-0.3273876947771681,-0.9506569650830201,-0.6483904030412688,-30.0,-7.8237771996300545,-73.86762083320514,100.0,25.425353710587633,-77.4724187024924
2024-01-01 10:00:17,8,23.408276802601755,-43.54411368796842,50.25193742191338,0.26369255378875067,0.1528747157946242,-1.4101166207956481,-0.9170020158573351,-0.01614500009643649,-1.4025247770508003,30.0,-77.80293872958141,30.10284418481205,100.0,25.365788801088428,-75.13218094546382
2024-01-01 10:00:17,9,45.08103641764511,-21.863639205211946,51.83087203559601,0.5210921656202743,0.4995879312681488,0.8070933580991735,0.06594942488193567,-0.24591397447060004,0.4364445510651791,-30.0,48.189537726390064,43.79304042546099,99.08500570118736,25.57779280580219,-75.51605848617443
2024-01-01 10:00:18,0,49.707684400654045,9.417118730849309,51.341762404764125,0.620987195384167,1.296462277652486,-0.6315112003603787,1.0674633036798724,0.26019607748659457,-0.8699100177068999,-30.0,-23.716297174873052,64.40623463755806,99.89789904230443,25.629059031863893,-77.3054548159612
2024-01-01 10:00:18,1,33.65147337955742,35.643442236487815,51.6021693793484,-0.8065188249096309,-0.25654469176082983,0.04048492206943877,0.5088001516417506,-0.6758689359607288,-0.33885437855108336,-30.0,2.7386796708828394,-162.35470991601935,99.4088538783813,25.49289285976674,-80.87213528372375
2024-01-01 10:00:18,2,6.547098072516086,50.17862962292746,52.02520640251283,0.22110532550533346,1.1593703202579135,0.859951210641114,1.1159791004162525,2.0982482724729294,2.2913856048331454,30.0,36.0773862066081,79.20268901329338,100.0,25.524283393143172,-77.15882715777502
2024-01-01 10:00:18,3,-23.738269568164732,43.770196632373356,51.75902587485405,-0.16927120480575653,-0.47954124919147745,0.3503854963231632,-0.5962538938997568,-1.131014111921921,-0.04846235201470961,-30.0,34.5669712155965,-109.44230336945026,100.0,24.90721550298483,-78.01530424243143
2024-01-01 10:00:18,4,-44.79337903542875,21.415702293004173,51.838183941710426,0.014400792187316824,-0.46421487467957334,-0.2179929228306534,0.33949941658955396,0.6204540230003985,-1.3957155987297512,30.0,-25.14390847056317,-88.22315024592424,99.49864515750674,25.17758932511649,-77.27769031649792
2024-01-01 10:00:18,5,-48.47335785964207,-8.59023882966775,51.3684556417878,0.7138844534794799,-0.20199881459455682,-0.46610420216830306,0.21716698940228696,0.21321613646657234,-1.1401420085135854,30.0,-32.13895478610484,-15.79924770928054,99.57082789601142,24.95431446158974,-76.87951364899652
2024-01-01 10:00:18,6,-34.209186590916794,-36.357166505385074,52.47426079481173,0.35443037690176027,-1.313870741115359,0.026671588236681032,-0.2154830077068226,-2.2114779641110616,-1.6034040075944205,-30.0,1.1228191619987544,-74.90321767961277,98.78296041697334,25.74814468218402,-77.50228728068814
2024-01-01 10:00:18,7,-7.436328948963776,-49.13017076494586,51.092277815789785,-0.07272775722894664,1.0733067106032905,-0.3486377082425278,-0.2635389340283858,1.7329881082242196,-0.2542780137693086,30.0,-17.95660930178038,93.87646276475377,100.0,25.456853436050757,-76.03388150441297
2024-01-01 10:00:18,8,23.048673851396885,-42.75969642473847,51.346273002089546,-0.3596029512048702,0.7844172632299475,1.094335580176164,-0.6232955049936209,0.6315425474353233,2.504452200971812,30.0,51.74316179926511,114.62829532849179,100.0,25.392341510396765,-77.07955166196327
2024-01-01 10:00:18,9,45.05988528255222,-22.461774996630492,51.55295091143562,-0.02115113509288591,-0.5981357914185459,-0.27792112416038606,-0.5422433007131602,-1.0977237226866947,-1.0850144822595595,-30.0,-24.90804852488955,-92.02523580621946,99.2116928655948,24.753747433224984,-74.31212806521305
2024-01-01 10:00:19,0,48.9456055679379,9.608576464526811,52.34237491062609,-0.7620788327161421,0.19145773367750252,1.000612505861966,-1.383066028100309,-1.1050045439749834,1.6321237062223446,30.0,51.85816427770168,165.89740018298596,100.0,24.97450746506819,-79.87356407555244
2024-01-01 10:00:19,1,34.53612176429874,36.49184619019617,51.818570241814655,0.8846483847413182,0.8484039537083561,0.21640086246625145,1.6911672096509491,1.104948645469186,0.1759159403968127,30.0,10.012383914923518,43.80191140218594,100.0,25.675444496625698,-80.1799928763026
2024-01-01 10:00:19,2,6.115099437116349,49.623288027028316,51.69509602007294,-0.4319986353997365,-0.5553415958991437,-0.33011038243989077,-0.65310396090507,-1.7147119161570572,-1.1900615930810048,-30.0,-25.135294361100872,-127.87924435498432,99.98906678905965,25.469231191485562,-75.33503995598129
2024-01-01 10:00:19,3,-23.688239367639127,43.77155942327518,52.12502790060369,0.050030200525604585,0.0013627909018225637,0.366002025749637,0.2193014053313611,0.4809040400933,0.015616529426473846,30.0,82.21341251150469,1.5603148283532262,100.0,25.419858682907144,-78.57822111096783
2024-01-01 10:00:19,4,-45.34356062316847,21.416985434345918,52.02886539128496,-0.550181587739722,0.0012831413417444537,0.1906814495745337,-0.5645823799270389,0.4654980160213178,0.4086743724051871,30.0,19.115199998183567,179.86637420854356,100.0,25.635005309243493,-75.48309502822134
2024-01-01 10:00:19,5,-49.6459748413753,-9.304576957696328,52.20822057511755,-1.1726169817332277,-0.7143381280285777,0.8397649333297537,-1.8865014352127076,-0.5123393134340208,1.3058691354980567,-30.0,31.449892799073876,-148.65094462544948,100.0,25.377473274108887,-74.60266558893164
2024-01-01 10:00:19,6,-33.38369619162256,-36.35317276709635,52.4817739325118,0.8254903992942317,0.003993738288720294,0.007513137700073003,0.47106002239247147,1.3178644794040792,-0.01915845053660803,30.0,0.5214526523015995,0.277195910847581,100.0,25.25995235549107,-76.48097847568718
2024-01-01 10:00:19,7,-6.628626761630165,-50.28037660797371,52.0418634243531,0.8077021873336108,-1.1502058430278481,0.9495856085633179,0.8804299445625574,-2.2235125536311386,1.2982233168058457,-30.0,34.04429218476665,-54.92254713085225,99.90667385638672,25.45635838453995,-77.18101449512417
2024-01-01 10:00:19,8,24.250024228091604,-44.35434984267173,51.59963603244987,1.2013503766947196,-1.5946534179332588,0.25336303036032604,1.5609533278995897,-2.3790706811632063,-0.840972549815838,-30.0,7.232246503649923,-53.00703988151448,99.58282253372427,25.45884739401352,-76.70531904994867
2024-01-01 10:00:19,9,45.30064050426403,-21.18215596958615,51.83019536553469,0.24075522171180808,1.2796190270443404,0.27724445409906906,0.261906356804694,1.8777548184628863,0.5551655782594551,30.0,12.020240741749683,79.344592010384,98.53341224334245,24.877990896855543,-77.86848327449012
2024-01-01 10:00:20,0,48.76374177313944,9.840637051421153,51.393924224540235,-0.18186379479846693,0.23206058689434172,-0.9484506860858559,0.5802150379176751,0.04060285321683921,-1.9490631919478218,-30.0,-72.73174619095035,128.08547983861143,99.39352042951825,25.41596752178074,-77.27830820677981
2024-01-01 10:00:20,1,33.31232440491384,36.85136031973792,52.60664222526624,-1.2237973593849034,0.35951412954175055,0.7880719834515872,-2.1084457441262217,-0.48888982416660554,0.5716711209853358,30.0,31.709748461710316,163.62882958759252,100.0,25.540805176104904,-73.5508554128036
2024-01-01 10:00:20,2,6.064896741541662,50.104712801075806,52.24274066920019,-0.05020269557468726,0.48142477404748973,0.5476446491272497,0.3817959398250492,1.0367663699466334,0.8777550315671405,30.0,48.52817027730987,95.95325384868661,99.98034295879577,25.219793320836633,-77.4832761711423
2024-01-01 10:00:20,3,-24.23296800601614,43.45640657894173,51.05166645375487,-0.5447286383770127,-0.31515284433344704,-1.0733614468488213,-0.5947588389026173,-0.3165156352352696,-1.4393634725984583,-30.0,-59.61635980731303,-149.94846500881957,99.9629532300611,25.09362818811776,-76.23782169180875
2024-01-01 10:00:20,4,-45.44908197972264,20.098152910672233,52.68952980900545,-0.10552135655417061,-1.3188325236736844,0.6606644177204899,0.4446602311855514,-1.3201156650154289,0.4699829681459562,-30.0,26.535276720156414,-94.57455818913628,99.51941992803066,25.19231540634372,-73.80210409475569
2024-01-01 10:00:20,5,-47.90540082499768,-10.604462342910658,52.3833308579467,1.7405740163776215,-1.2998853852143295,0.1751102828291522,2.9131909981108493,-0.5855472571857518,-0.6646546505006015,30.0,4.608478038823885,-36.75289770703667,99.19147690786298,25.392313392963256,-74.81683582160007
2024-01-01 10:00:20,6,-34.797842392485194,-36.63881461922523,52.14742021864015,-1.414146200862632,-0.28564185212887594,-0.3343537138716499,-2.2396366001568637,-0.28963559041759623,-0.3418668515717229,-30.0,-13.048206244784648,-168.58053623838623,99.78504735311314,25.207913649100913,-76.69512343740075
2024-01-01 10:00:20,7,-5.17633233015024,-49.1064750236862,51.76920863043964,1.4522944314799249,1.1739015842875062,-0.2726547939134605,0.6445922441463141,2.3241074273153544,-1.2222404024767783,30.0,-8.306902604170135,38.9488952789404,100.0,25.416134786712703,-79.1834166113012
2024-01-01 10:00:20,8,24.329912056875276,-43.27387877619484,51.97506413345632,0.07988782878367218,1.080471066476889,0.37542810100644886,-1.1214625479110474,2.675124484410148,0.12206507064612282,30.0,19.112283632894286,85.77136136185986,99.32579359489684,25.850077642560343,-79.95889370407059
2024-01-01 10:00:20,9,45.62413570328904,-21.15736945444455,52.04763730627285,0.323495199025011,0.024786515141602905,0.21744194073815493,0.08273997731320293,-1.2548325119027375,-0.059802513360914134,-30.0,33.82999077958514,4.381497186098746,99.50953488359333,25.087626443366425,-77.0100598285746
2024-01-01 10:00:21,0,48.30344242416707,10.829257903502075,52.716922279583265,-0.460299348972363,0.9886208520809223,1.3229980550430298,-0.2784355541738961,0.7565602651865806,2.2714487411288857,-30.0,50.501793738924874,114.96656686844707,99.85123143585699,25.12296625683653,-73.07240530252679
2024-01-01 10:00:21,1,33.51348636697966,36.42233068836735,51.413040868145586,0.20116196206582515,-0.42902963137056815,-1.1936013571206558,1.4249593214507286,-0.7885437609123187,-1.981673340572243,-30.0,-68.34738146736764,-64.87921766980696,99.78757650836701,25.26417397663375,-79.78071931840465
2024-01-01 10:00:21,2,4.100280732634061,49.73558669286085,51.94553441511903,-1.9646160089076012,-0.3691261082149566,-0.29720625408116064,-1.914413313332914,-0.8505508822624464,-0.8448509032084104,-30.0,-8.456675251033085,-169.35891736569187,99.44562970212439,25.509978201000237,-81.98969323167164
2024-01-01 10:00:21,3,-24.897918127696773,42.950203110816105,52.47000694617991,-0.6649501216806328,-0.5062034681256264,1.4183404924250382,-0.12022148330362015,-0.1910506237921794,2.4917019392738595,30.0,59.49288480128729,-142.71923967578275,100.0,24.863238658262,-74.34320653108276
2024-01-01 10:00:21,4,-45.16089675949101,20.355951338077436,52.29818039250152,0.2881852202316324,0.2577984274052021,-0.3913494165039282,0.393706576785803,1.5766309510788865,-1.052013834224418,30.0,-45.34488419712129,41.81448206766885,100.0,25.63209837283896,-76.72589945358176
2024-01-01 10:00:21,5,-49.15169560590961,-9.544306993955104,51.854159377038684,-1.2462947809119314,1.0601553489555542,-0.529171480908019,-2.986868797289553,2.3600407341698837,-0.7042817637371712,30.0,-17.92188813034562,139.61399084795258,100.0,25.134484685697768,-77.7091276075574
2024-01-01 10:00:21,6,-33.700784468780434,-37.344953184480445,52.562545457061056,1.0970579237047602,-0.7061385652552161,0.4151252384209059,2.511204124567392,-0.4204967131263402,0.7494789522925558,30.0,17.65022326785859,-32.767994596777456,100.0,25.768765778636435,-78.90091079762382
2024-01-01 10:00:21,7,-5.108860420554625,-49.5390450221556,51.75448355537522,0.06747190959561511,-0.4325699984693969,-0.014725075064426107,-1.3848225218843098,-1.6064715827569032,0.2579297188490344,-30.0,-1.9263723135297313,-81.1344890417719,100.0,25.17515302356889,-81.66405440606302
2024-01-01 10:00:21,8,24.789825340974687,-43.427840742305634,51.21086191766071,0.4599132840994109,-0.15396196611079205,-0.7642022157956134,0.3800254553157387,-1.2344330325876811,-1.1396303168020623,-30.0,-57.59882267239636,-18.508641379374076,99.56627143614898,25.7809787986265,-77.44209063188902
2024-01-01 10:00:21,9,45.634221011182014,-20.200659562374803,52.65171148666584,0.010085307892971684,0.9567098920697461,0.6040741803929919,-0.3134098911320393,0.9319233769281432,0.38663223965483695,30.0,32.26720081445893,89.39602989483645,99.82516151365083,24.84121514366529,-74.81086794072964
2024-01-01 10:00:22,0,48.75886740574011,11.413247602989479,52.310515337853815,0.4554249815730387,0.5839896994874039,-0.40640694172945047,0.9157243305454017,-0.40463115259351845,-1.7294049967724803,-30.0,-28.756653858684622,52.05107545494681,99.09096326671929,25.333703379340683,-78.3345064702878
2024-01-01 10:00:22,1,33.356667799378776,37.39632237313037,52.09240721027824,-0.15681856760088664,0.9739916847630141,0.6793663421326528,-0.3579805296667118,1.4030213161335823,1.8729676992533086,30.0,34.55280088456633,99.14647247547465,99.4338312710562,25.22849738779645,-79.42190078491642
2024-01-01 10:00:22,2,5.196661382818467,49.89806780463074,52.408066596796196,1.0963806501844067,0.16248111176989255,0.4625321816771688,3.060996659092008,0.5316072199848492,0.7597384357583294,30.0,22.651467329496636,8.429748217641292,99.43068077888493,25.43721423959349,-77.84907496407152
2024-01-01 10:00:22,3,-24.77305060238292,42.906077747009476,52.211661590124955,0.12486752531385292,-0.04412536380662857,-0.2583453560549529,0.7898176469944858,0.4620781043189979,-1.6766858484799911,30.0,-62.859118277665054,-19.46225797692971,99.71490117479482,25.738787192299355,-77.67740157114801
2024-01-01 10:00:22,4,-45.58891749112055,19.508044292453906,52.750754080313854,-0.42802073162953747,-0.8479070456235291,0.45257368781233254,-0.7162059518611699,-1.1057054730287312,0.8439231043162607,-30.0,25.477158003359055,-116.78449645377269,99.93901133708206,25.372404209052878,-77.33513751702294
2024-01-01 10:00:22,5,-48.20594797580763,-9.654703104110519,52.37428044249734,0.9457476301019767,-0.11039611015541517,0.5201210654586532,2.192042411013908,-1.1705514591109694,1.0492925463666722,-30.0,28.645514533001084,-6.657944616724476,99.46034195547013,25.669418745724727,-78.28926116015558
2024-01-01 10:00:22,6,-32.877406791848955,-37.18500989712918,52.66685821414844,0.8233776769314787,0.15994328735126828,0.10431275708738497,-0.2736802467732815,0.8660818526064844,-0.3108124813335209,30.0,7.089143941141846,10.992951242867688,100.0,25.411990898836564,-75.40068978801901
2024-01-01 10:00:22,7,-4.983097549335277,-50.19131311858138,52.06017533267902,0.12576287121934815,-0.6522680964257788,0.3056917773038066,0.05829096162373304,-0.21969809795638184,0.3204168523682327,10.238437879919573,24.711133662780465,-79.08680146578799,99.79615783995929,25.3790050335659,-75.22359880137977
2024-01-01 10:00:22,8,25.863635428027806,-43.10055468183376,51.5778350984994,1.0738100870531184,0.32728606047187014,0.36697318083869135,0.6138968029537075,0.4812480265826622,1.1311753966343048,30.0,18.10266117372549,16.950671964838694,100.0,25.380238851781034,-75.93177208216807
2024-01-01 10:00:22,9,45.61401389883923,-19.188943060115918,53.035089135665885,-0.020207112342781386,1.011716502258885,0.383377649000046,-0.03029242023575307,0.05500661018913888,-0.22069653139294587,8.740960795804824,20.749807261928826,91.14422205399741,99.56003248597523,25.023471350153073,-74.47281289033144
2024-01-01 10:00:23,0,48.360759872966185,11.579573979513627,52.98875881806059,-0.39810753277392763,0.1663263765241485,0.678243480206774,-0.8535325143469663,-0.41766332296325537,1.0846504219362245,30.0,57.53805202468972,157.3251894586253,100.0,25.32725033931674,-76.95604577506403
2024-01-01 10:00:23,1,32.37917462364236,38.08892803172091,52.06928167820492,-0.9774931757364129,0.6926056585905442,-0.02312553207331547,-0.8206746081355263,-0.2813860261724699,-0.7024918742059683,30.0,-1.105872093435018,144.68040896048373,99.94543508558262,25.097499197739122,-79.12925407554475
2024-01-01 10:00:23,2,3.955349155988714,50.29273412823707,52.83664789974701,-1.2413122268297534,0.39466632360633014,0.42858130295081054,-2.33769287701416,0.2321852118364376,-0.03395087872635827,30.0,18.21298157759936,162.36231076598668,100.0,25.46913900415708,-80.40209488652519
2024-01-01 10:00:23,3,-25.551017442781223,42.37169728418446,52.22435417597981,-0.7779668403983031,-0.5343804628250197,0.012692585854857441,-0.902834365712156,-0.49025509901839115,0.27103794190981034,-30.0,0.77047350037531,-145.51507558580565,99.80421252805787,25.060950372766158,-79.28466705278863
2024-01-01 10:00:23,4,-47.10166776829695,18.5413132753878,51.8623826025183,-1.5127502771764014,-0.9667310170661061,-0.8883714777955518,-1.084729545546864,-0.11882397144257695,-1.3409451656078843,-30.0,-26.328090986919445,-147.41917421771464,99.71892866674989,24.97816395990688,-81.09507850016394
2024-01-01 10:00:23,5,-49.05864360288751,-11.69835601391154,51.74378773067706,-0.8526956270798749,-2.043652909801022,-0.6304927118202741,-1.7984432571818516,-1.9332567996456067,-1.1506137772789273,-30.0,-15.892861410558911,-112.64789448380355,100.0,25.534610804071267,-74.24834799021261
2024-01-01 10:00:23,6,-32.429502525099906,-37.64522785051962,52.488905049526046,0.44790426674904893,-0.46021795339044047,-0.1779531646223944,-0.37547341018242975,-0.6201612407417088,-0.2822659217097794,-30.0,-15.48805147696971,-45.77685472811967,99.53130729381489,24.990727067607004,-74.72988366875441
2024-01-01 10:00:23,7,-3.810062873448386,-50.29216381546711,52.30887351927645,1.1730346758868908,-0.10085069688573611,0.24869818659743004,1.0472718046675427,0.5514173995400427,-0.05699359070637655,30.0,11.927446722914148,-4.913874489969361,100.0,25.555665462534787,-76.40362948547322
2024-01-01 10:00:23,8,25.274971619127715,-42.06155885877119,52.16465796777735,-0.5886638089000904,1.0389958230625709,0.5868228692779525,-1.6624738959532088,0.7117097625907007,0.21984968843926112,30.0,26.169837066425853,119.53458743348429,99.82408370714558,25.915006251402907,-77.0698831434581
2024-01-01 10:00:23,9,45.97245362239265,-19.32688118009927,52.52219119396856,0.3584397235534169,-0.13793811998335315,-0.5128979416973252,0.3786468358961983,-1.1496546222422381,-0.8962755906973712,-30.0,-53.17362494162621,-21.048188950888797,99.70772613108238,25.52788148432021,-77.91439781931669
2024-01-01 10:00:24,0,48.548985723046506,12.667453149263732,50.99902332566254,0.18822585008032178,1.0878791697501047,-1.9897354923980473,0.5863333828542494,0.9215527932259562,-2.6679789726048213,-30.0,-60.97546264896482,80.18381504758881,99.30904339847825,25.320806450253492,-75.39858661513004
2024-01-01 10:00:24,1,32.21223492373472,37.73656835400701,52.7697415267788,-0.166939699907644,-0.3523596777138991,0.7004598485738782,0.8105534758287689,-1.0449653363044433,0.7235853806471937,-30.0,60.89784984979997,-115.35048991429314,99.54604976273814,25.50720276924743,-72.12055861683353
2024-01-01 10:00:24,2,2.891069796601088,49.21447857403121,52.690122726267006,-1.0642793593876259,-1.0782555542058603,-0.1465251734800006,0.17703286744212754,-1.4729218778121904,-0.5751064764308111,-30.0,-5.524132761111445,-134.62625317623932,99.28684132924893,25.789291137490835,-78.06094364800356
2024-01-01 10:00:24,3,-27.085182628682432,43.03931636492111,53.15194430071973,-1.5341651859012089,0.6676190807366567,0.9275901247399148,-0.7561983455029058,1.2019995435616764,0.9148975388850573,30.0,29.00410451865666,156.48288235334888,99.77839873481703,24.913058046914834,-75.86896839370375
2024-01-01 10:00:24,4,-46.109474019568175,18.998219741643048,52.345265348047896,0.9921937487287735,0.4569064662552478,0.48288274552959365,2.504944025905175,1.4236374833213539,1.3712542233251455,30.0,23.848385987142247,24.726129729291806,99.54425928696324,25.536023905037055,-79.08465196586471
2024-01-01 10:00:24,5,-48.89683371141646,-12.241233699506664,53.51634686844723,0.1618098914710444,-0.5428776855951227,1.7725591377701662,1.0145055185509193,1.5007752242058991,2.4030518495904403,30.0,72.27702224019345,-73.40280855031727,99.32418712206561,25.532955881765236,-74.92784953070827
2024-01-01 10:00:24,6,-33.014237009785695,-37.67367452873688,52.53487991077649,-0.5847344846857894,-0.02844667821726432,0.0459748612504427,-1.0326387514348383,0.43177127517317615,0.2239280258728371,-30.0,4.490354202407843,-177.21482031072273,99.16839681828554,25.29364586350084,-74.5993418200197
2024-01-01 10:00:24,7,-4.196882349455279,-50.489578504660756,52.20474128916756,-0.3868194760068935,-0.1974146891936428,-0.10413223010889539,-1.5598541518937843,-0.09656399230790669,-0.3528304167063254,-30.0,-13.483790799514368,-152.96234548469675,100.0,25.22898146385557,-78.07823023346896
2024-01-01 10:00:24,8,26.088359914082847,-42.41814259559167,52.963979171465475,0.8133882949551321,-0.3565837368204754,0.7993212036881232,1.4020521038552225,-1.3955795598830463,0.21249833441017074,-30.0,41.98776717218877,-23.67230892378444,99.82077707539696,25.9462479677639,-76.40351348791101
2024-01-01 10:00:24,9,46.41461368377168,-18.72685288120036,51.43819020081516,0.4421600613790275,0.6000282988989092,-1.0840009931534027,0.08372033782561061,0.7379664188822623,-0.5711030514560775,30.0,-55.48808449280558,53.61354738320135,100.0,25.101684390770558,-77.18464053001092
2024-01-01 10:00:25,0,48.85657233771985,12.413721496845232,52.24762401778808,0.30758661467334036,-0.2537316524184998,1.2486006921255353,0.11936076459301859,-1.3416108221686045,3.2383361845235825,-30.0,72.28936899819315,-39.51960477235581,99.72195598317282,26.068485575321315,-76.77707071241336
2024-01-01 10:00:25,1,31.81174443500784,38.78726215441281,51.800331911004,-0.40049048872688076,1.0506938004057957,-0.9694096157748007,-0.23355078881923674,1.4030534781196948,-1.669869464348679,30.0,-40.76566953676851,110.86522824741681,100.0,25.654537479594335,-77.40432568873882
2024-01-01 10:00:25,2,3.1195666908028965,50.41148185694158,52.518038090114835,0.2284968942018084,1.1970032829103658,-0.17208463615217084,1.2927762535894343,2.275258837116226,-0.02555946267217024,30.0,-8.037765386531833,79.1927811298557,99.54855566270237,26.21180595813009,-78.45906698471308
2024-01-01 10:00:25,3,-26.685306497908805,41.87602086274358,52.52788134947078,0.3998761307736274,-1.163295502177533,-0.6240629512489448,1.9340413166748363,-1.8309145829141897,-1.5516530759888596,-30.0,-26.899824614673467,-71.02988723052393,99.40441631129303,25.426355012322496,-78.96772256698735
2024-01-01 10:00:25,4,-46.50008333723863,18.30753689566749,51.759440760468536,-0.39060931767045304,-0.6906828459755587,-0.58582458757936,-1.3828030663992266,-1.1475893122308065,-1.0687073331089536,-30.0,-36.438200430928894,-119.48992980394577,99.90556294051929,25.782778639518128,-80.9736692372743
2024-01-01 10:00:25,5,-48.833746344054376,-12.296577639753611,52.61430903660471,0.06308736736208687,-0.055343940246947554,-0.9020378318425202,-0.09872252410895754,0.4875337453481752,-2.6745969696126863,30.0,-84.68470528916835,-41.25913874734244,99.48433296777233,25.630501793673478,-78.09243851375864
2024-01-01 10:00:25,6,-31.577525955169932,-38.496368606577605,52.514536747965664,1.4367110546157633,-0.8226940778407226,-0.020343162810824822,2.0214455393015527,-0.7942473996234583,-0.06631802406126752,30.0,-0.7039917500867341,-29.79645327134104,100.0,24.787903565799006,-81.28544951318776
2024-01-01 10:00:25,7,-3.7212669967930396,-49.504675064205436,52.318426477877935,0.47561535266223975,0.9849034404553194,0.11368518871037736,0.8624348286691332,1.1823181296489622,0.21781741881927275,30.0,5.9341664075296725,64.22384476895245,100.0,25.47995681327748,-79.25137745212736
2024-01-01 10:00:25,8,28.373552148032488,-43.29264250049314,52.17702111710905,2.2851922339496404,-0.8744999049014694,-0.7869580543564254,1.4718039389945083,-0.517916168080994,-1.5862792580445486,13.657022115741277,-17.82918376451349,-20.940904500636183,99.20196162937776,25.169082038198503,-74.42231901324945
2024-01-01 10:00:25,9,46.46292310566048,-18.934668305903344,52.18426166684736,0.04830942188880272,-0.2078154247029822,0.7460714660322054,-0.3938506394902248,-0.8078437236018914,1.8300724591856081,-30.0,74.04087687332002,-76.91327196015918,100.0,25.589060515973753,-77.51554785289187
2024-01-01 10:00:26,0,48.36537929499342,11.86024313730731,52.37456474529993,-0.4911930427264295,-0.5534783595379231,0.12694072751185104,-0.7987796573997699,-0.2997467071194233,-1.1216599646136842,-30.0,9.733787776642956,-131.5879546964288,99.66952339288989,25.353915514395986,-76.71356973709186
2024-01-01 10:00:26,1,32.40282949174113,39.43930264499443,51.52950185438922,0.5910850567332915,0.6520404905816193,-0.2708300566147841,0.9915755454601722,-0.39865330982417646,0.6985795591600166,-30.0,-17.104908052760244,47.807193609029284,100.0,25.706466777737678,-75.34095657620952
2024-01-01 10:00:26,2,3.053073474298515,49.55306858238852,52.65429761023212,-0.06649321650438145,-0.8584132745530582,0.13625952011728515,-0.29499011070618986,-2.055416557463424,0.308344156269456,-30.0,8.993049469500786,-94.42932134482774,99.87037774961476,24.911876168421703,-78.3887062063503
2024-01-01 10:00:26,3,-27.79390251806596,41.764492258635286,52.27530512794612,-1.1085960201571545,-0.1115286041082939,-0.25257622152466297,-1.508472150930782,1.0517668980692392,0.37148672972428187,-30.0,-12.772516177342617,-174.25517508741711,98.68349552562422,25.396087035153393,-76.6945319273928
2024-01-01 10:00:26,4,-47.33506589348745,17.360282080745886,51.93787399659969,-0.8349825562488249,-0.9472548149216031,0.17843323613115558,-0.44437323857837185,-0.2565719689460444,0.7642578237105155,-30.0,8.043070798707916,-131.39540854291855,99.89050912108547,25.666945104465878,-77.24892784422387
2024-01-01 10:00:26,5,-48.119560375812895,-11.943292400987758,51.75923170858906,0.7141859682414804,0.35328523876585294,-0.8550773280156463,0.6510986008793935,0.4086291790128005,0.04696050382687389,30.0,-47.0209349582482,26.32014838357535,99.40594634710936,25.220269022671047,-78.56910756558614
2024-01-01 10:00:26,6,-30.996227367918703,-39.595435124733285,51.30457983595748,0.5812985872512293,-1.0990665181556807,-1.209956912008181,-0.855412467364534,-0.2763724403149581,-1.1896137491973562,-30.0,-44.22076142546289,-62.12554271308314,99.87024515894909,25.531232425773236,-77.47473934971077
2024-01-01 10:00:26,7,-3.0181389343459357,-50.250452672670804,52.40632967804607,0.7031280624471039,-0.7457776084653673,0.08790320016813524,0.22751270978486415,-1.7306810489206867,-0.025781988542242118,-30.0,4.901768181092226,-46.6860542606602,99.00499860200803,25.408820002029515,-78.58040131261866
2024-01-01 10:00:26,8,27.291133755688744,-42.25062465198398,52.557034445049084,-1.0824183923437438,1.042017848509154,0.3800133279400342,-3.3676106262933843,1.9165177534106235,1.1669713822964596,30.0,14.19386177757364,136.08946628847025,99.81150582869593,26.067910199232145,-75.51823257243026
2024-01-01 10:00:26,9,47.22944162241811,-17.76959542606979,52.83310324451706,0.7665185167576283,1.1650728798335521,0.6488415776696996,0.7182090948688256,1.3728883045365343,-0.09722988836250579,30.0,24.950132110872957,56.658496346715054,99.66242967256846,25.55438011446481,-77.95454759905729
2024-01-01 10:00:27,0,48.3671011040504,14.075518856812314,52.311544849128744,0.0017218090569812716,2.215275719505005,-0.06301989617118409,0.49291485178341077,2.768754079042928,-0.18996062368303512,30.0,-1.6295034439655023,89.95546722633293,99.99044556330058,25.261911580191732,-78.06498921015663
2024-01-01 10:00:27,1,30.745342714243304,39.352846429898825,51.91081563019106,-1.6574867774978266,-0.08645621509560186,0.3813137758018428,-2.248571834231118,-0.7384967056772211,0.6521438324166269,-30.0,12.938782244069406,-177.0140992339513,100.0,25.84991883863828,-76.9195113442049
2024-01-01 10:00:27,2,2.378561683138498,49.606809903935144,53.071526696653166,-0.6745117911600169,0.053741321546624476,0.4172290864210453,-0.6080185746556355,0.9121545960996826,0.28096956630376013,30.0,31.658420662571714,175.44461614875956,100.0,25.8910431475754,-79.4507309418623
2024-01-01 10:00:27,3,-27.835775556187517,41.81840435621405,52.787648598021455,-0.04187303812155818,0.053912097578766804,0.5123434700753364,1.0667229820355963,0.1654407016870607,0.7649196915999994,30.0,82.41076866003573,127.83616370085943,99.69535211741349,25.242401659944008,-79.37309576213387
2024-01-01 10:00:27,4,-47.53174821907984,16.816997032621217,52.433760970009644,-0.1966823255923842,-0.5432850481246696,0.49588697340995225,0.6383002306564407,0.4039697667969335,0.31745373727879667,30.0,40.637713949595096,-109.90148102932828,99.46636981000867,25.245437750768883,-74.51601157024741
2024-01-01 10:00:27,5,-48.83021641551871,-13.797610143534678,53.287680129643014,-0.7106560397058175,-1.85431774254692,1.5284484210539517,-1.4248420079472979,-2.207602981312773,2.383525749069598,-30.0,37.58464533427851,-110.96902768567136,99.59021067313198,25.06357001778748,-77.25494583535777
2024-01-01 10:00:27,6,-30.610402336704436,-39.143817799509364,51.57633577164575,0.38582503121426726,0.4516173252239213,0.27175593568826883,-0.19547355603696204,1.550683843379602,1.4817128476964498,30.0,24.584686518302522,49.49212261131728,99.03586840017797,25.715096183504127,-78.97844812775841
2024-01-01 10:00:27,7,-2.01455322406578,-51.494305028579674,52.013843001552814,1.0035857102801558,-1.2438523559088708,-0.39248667649325597,0.30045764783305184,-0.49807474744350344,-0.4803898766613912,-22.080416431023338,-13.797385607019173,-51.10213754686487,99.75329148921243,25.836752736247803,-75.14974695025543
2024-01-01 10:00:27,8,27.836172363526405,-41.92500332093503,52.77503320531837,0.545038607837661,0.32562133104894997,0.217998760269289,1.6274570001814048,-0.716396517460204,-0.16201456767074518,-30.0,18.9504173388384,30.85527757664414,100.0,25.233564048922062,-77.0407684422691
2024-01-01 10:00:27,9,46.799560418089314,-17.648932923039965,53.16762093104542,-0.42988120432879384,0.12066250302982695,0.33451768652835767,-1.1963997210864221,-1.0444103768037252,-0.31432389114134196,30.0,36.840883668212015,164.32120545642988,100.0,25.10133343669995,-74.43420029309502
2024-01-01 10:00:28,0,47.648525114091946,13.56690390641342,53.11363204845545,-0.7185759899584525,-0.5086149503988935,0.8020871993267065,-0.7202977990154338,-2.7238906699038985,0.8651070954978906,-30.0,42.33621173037269,-144.70877529549915,99.56804898567187,25.293958251239108,-77.80516366488109
2024-01-01 10:00:28,1,30.687823334726836,39.63684736570982,52.56356803361467,-0.05751937951646724,0.28400093581099384,0.6527524034236123,1.5999673979813593,0.3704571509065957,0.2714386276217695,30.0,66.0628044884853,101.44937725990901,99.62188717511899,25.9668255602868,-81.31042885318247
2024-01-01 10:00:28,2,0.7599703097225127,50.07468496950639,52.00889231985282,-1.6185913734159856,0.46787506557124914,-1.0626343768003466,-0.9440795822559687,0.41413374402462466,-1.4798634632213918,-30.0,-32.239500998790405,163.87736866148654,100.0,25.71547487712711,-79.68804976287576
2024-01-01 10:00:28,3,-27.983486257095926,41.88142658970078,52.85110398105664,-0.14771070090840865,0.06302223348672698,0.06345538303518339,-0.10583766278685047,0.00911013590796017,-0.44888808704015304,30.0,21.560492712751888,156.8940009352113,100.0,25.588423045793775,-77.96213141893345
2024-01-01 10:00:28,4,-46.46946829616966,17.286038275171954,52.19285604874155,1.0622799229101787,0.46904124255073754,-0.24090492126809693,1.2589622485025629,1.0123262906754071,-0.7367918946780492,30.0,-11.720212340651505,23.82347409253581,99.71532772377194,25.603542630092697,-78.10144801862616
2024-01-01 10:00:28,5,-47.782353525644005,-12.834766800306113,51.69982048872257,1.0478628898747075,0.962843343228565,-1.587859640920442,1.758518929580525,2.817161085775485,-3.1163080619743937,30.0,-48.13301176484185,42.57878046073316,99.36860656855752,25.69746261266017,-78.64986912882506
2024-01-01 10:00:28,6,-31.052415541175385,-39.218635826639755,52.64481852311112,-0.4420132044709497,-0.07481802713039087,1.0684827514653676,-0.827838235685217,-0.5264353523543122,0.7967268157770988,-30.0,67.23866473340401,-170.39280575152802,100.0,25.992371243572524,-75.16862672875885
2024-01-01 10:00:28,7,-1.774455498405738,-50.40969939904239,52.91705898938402,0.24009772566004206,1.0846056295372861,0.9032159878312029,-0.7634879846201137,2.328457985446157,1.295702664324459,30.0,39.11373417741906,77.51780323086435,100.0,25.353978182628605,-76.06470301074118
2024-01-01 10:00:28,8,27.399071681217013,-41.85673828032222,53.062715633364824,-0.43710068230939214,0.06826504061281469,0.28768242804645183,-0.9821392901470531,-0.2573562904361353,0.06968366777716284,30.0,33.03505524889286,171.12342798405965,100.0,25.461109961941915,-78.94732928048388
2024-01-01 10:00:28,9,46.92272819292727,-16.602536238406117,53.27022094545159,0.1231677748379596,1.046396684633848,0.10260001440617117,0.5530489791667534,0.925734181604021,-0.2319176721221865,-30.0,5.561842350272009,83.28679947305727,99.36498578751655,25.705547188884502,-76.05476366872524
2024-01-01 10:00:29,0,48.07656933046471,14.032731153358256,52.99675340051605,0.42804421637276135,0.46582724694483524,-0.1168786479394015,1.1466202063312139,0.9744421973437287,-0.918965847266108,30.0,-10.467439093360772,47.42039308207529,99.5412360400419,25.854170872807188,-79.2949407617774
2024-01-01 10:00:29,1,30.627273315200732,39.38242643845358,51.61802891287531,-0.06055001952610439,-0.2544209272562412,-0.9455391207393617,-0.0030306400096371533,-0.538421863067235,-1.598291524162974,-30.0,-74.53907549049359,-103.38687304023777,99.68717607464657,25.12854809158346,-74.17584144779511
2024-01-01 10:00:29,2,0.6966949418265957,50.478402401297984,52.19015726568399,-0.06327536789591692,0.40371743179159125,0.18126494583117392,1.5553160055200688,-0.06415763377965789,1.2438993226315205,-30.0,23.920854234054897,98.90760550871327,99.21236399215978,25.318535543805314,-78.63284399922247
2024-01-01 10:00:29,3,-28.650547582945734,41.09498521609786,52.69967160003367,-0.6670613258498079,-0.7864413736029192,-0.15143238102297119,-0.5193506249413993,-0.8494636070896462,-0.21488776405815457,-30.0,-8.35387181179535,-130.30468395750228,99.9767989433056,25.45204790144316,-77.37492127910447
2024-01-01 10:00:29,4,-47.5107316553619,17.54352544386455,52.490602171195555,-1.0412633591922429,0.25748716869259525,0.2977461224540079,-2.1035432821024216,-0.2115540738581423,0.5386510437221048,30.0,15.513901585516427,166.1103424670129,99.69379906636387,25.50118312790056,-76.46697896505717
2024-01-01 10:00:29,5,-47.608534374716115,-14.065991581176682,51.92313484790625,0.17381915092789058,-1.2312247808705692,0.22331435918367504,-0.874043738946817,-2.194068124099134,1.811174000104117,-30.0,10.181489780753433,-81.96432661793808,100.0,25.097506085642255,-74.1606931913081
2024-01-01 10:00:29,6,-30.3506151769162,-39.509504622372106,52.353707379802266,0.701800364259185,-0.2908687957323508,-0.29111114330885357,1.1438135687301347,-0.21605076860195993,-1.3595938947742212,30.0,-20.96670475955458,-22.51209395523392,99.89142317018165,25.907455328793496,-75.04253254409237
2024-01-01 10:00:29,7,-2.303018198255066,-50.081697106941895,52.23727932485384,-0.528562699849328,0.3280022921004928,-0.6797796645301801,-0.7686604255093701,-0.7566033374367933,-1.582995652361383,30.0,-47.53846169290342,148.17811809631397,99.61025751118909,25.397109563837034,-83.36644932335949
2024-01-01 10:00:29,8,28.724481375421053,-40.4158929222004,53.107564246772824,1.3254096942040405,1.4408453581218197,0.04484861340799995,1.7625103765134327,1.372580317509005,-0.24283381463845188,-30.0,1.3123227796415577,47.389563168435615,99.65929985693431,25.649803704094257,-74.36085114894972
2024-01-01 10:00:29,9,47.62405152678001,-16.23386732359658,52.393222025239204,0.7013233338527343,0.3686689148095361,-0.8769989202123867,0.5781555590147747,-0.6777277698243118,-0.9795989346185578,-30.0,-47.90392796826474,27.729831952029812,99.57677313874302,25.221839017514114,-76.76175369995181
2024-01-01 10:00:30,0,47.81536323095432,15.260332828333423,52.4721858200365,-0.26120609951038887,1.2276016749751673,-0.5245675804795482,-0.6892503158831502,0.761774428030332,-0.4076889325401467,30.0,-22.682700506231296,102.01211483842106,100.0,25.06367405736383,-75.64689407976655
2024-01-01 10:00:30,1,30.45010944704019,40.51858575955727,54.07503068811934,-0.17716386816054097,1.1361593211036904,2.4570017752440307,-0.11661384863443658,1.3905802483599317,3.4025408959833925,30.0,64.9201704694819,98.86288589053868,99.75594549636494,25.680733486901108,-76.71237166043207
2024-01-01 10:00:30,2,0.1368701098940398,50.285149067204955,52.26782032496428,-0.5598248319325559,-0.19325333409302914,0.07766305928029027,-0.496549464036639,-0.5969707658846204,-0.10360188655088365,-30.0,7.470795026375029,-160.95516117262645,99.20833312689237,25.450530854954646,-78.07123366251707
2024-01-01 10:00:30,3,-29.00520450516725,41.11773575534264,51.757489514281886,-0.35465692222151546,0.02275053924478243,-0.9421820857517815,0.31240440362829247,0.8091919128477016,-0.7907497047288103,30.0,-69.33380186806279,176.329618194381,100.0,26.219058496408344,-77.88065834942407
2024-01-01 10:00:30,4,-47.87281477081962,15.978485438602677,52.53854431758947,-0.36208311545772176,-1.5650400052618725,0.0479421463939147,0.6791802437345211,-1.8225271739544677,-0.2498039760600932,-30.0,1.709476429872881,-103.02659199827788,100.0,25.80282894941358,-75.61700692199261
2024-01-01 10:00:30,5,-47.54220597174846,-14.529729183722132,52.50058393331605,0.06632840296765607,-0.46373760254545004,0.5774490854098033,-0.1074907479602345,0.7674871783251191,0.3541347262261283,0.5206814897388767,50.94921848105081,-81.86019031999031,100.0,26.176141806779675,-77.75998796108853
2024-01-01 10:00:30,6,-30.646851580682647,-39.62054248566895,53.512497442140315,-0.29623640376644644,-0.1110378632968434,1.1587900623380492,-0.9980367680256315,0.1798309324355074,1.4499012056469027,-30.0,74.72973512350377,-159.4525672538486,99.11241277918792,26.162648596286765,-74.9666870087434
2024-01-01 10:00:30,7,-0.9093695625437779,-50.37454992593912,53.675740998019634,1.393648635711288,-0.2928528189972255,1.438461673165797,1.922211335560616,-0.6208551110977183,2.1182413376959772,-30.0,45.28774775693505,-11.867126627458067,100.0,25.910821327769884,-75.21624278009398
2024-01-01 10:00:30,8,29.41005547503128,-40.92430195639146,52.11729099431163,0.6855740996102284,-0.508409034191061,-0.9902732524611935,-0.6398355945938121,-1.9492543923128807,-1.0351218658691934,-30.0,-49.24192663178424,-36.559945808893,98.51725554223275,25.82232211307268,-75.58918987592506
2024-01-01 10:00:30,9,46.73944958056623,-15.895752820144143,53.37697137500815,-0.8846019462137775,0.338114503452438,0.9837493497689422,-1.5859252800665118,-0.030554411357098132,1.860748269981329,30.0,46.0898933532859,159.0820339306375,100.0,25.822574295148666,-76.19855427131702
2024-01-01 10:00:31,0,47.452847420986785,15.056877745606096,52.17341832862047,-0.3625158099675332,-0.20345508272732715,-0.29876749141602943,-0.10130971045714432,-1.4310567577024944,0.22580008906351878,-30.0,-35.704748985389415,-150.69751220046604,99.97006117301504,25.348745432781413,-80.76309212054464
2024-01-01 10:00:31,1,28.453660479302663,40.703678494946416,51.92083473364484,-1.9964489677375283,0.18509273538914783,-2.1541959544745026,-1.8192850995769874,-0.9510665857145426,-4.611197729718533,30.0,-47.054243714158005,174.7031935690359,99.77228501064224,25.70931015452627,-77.49181032488632
2024-01-01 10:00:31,2,0.717067431785063,50.32187010442964,52.51635387150288,0.5801973218910232,0.036721037224687336,0.24853354653859583,1.1400221538235793,0.22997437131771648,0.17087048725830556,30.0,23.146950512565635,3.6214539905702092,100.0,25.842151158553754,-77.95000066467358
2024-01-01 10:00:31,3,-29.20470827702009,40.72739063808591,53.20470221151719,-0.1995037718528394,-0.3903451172567358,1.447212697235301,0.15515315036867605,-0.41309565650151825,2.3893947829870825,-30.0,73.14798691124626,-117.07138722101773,100.0,25.519675552178132,-76.92860661702491
2024-01-01 10:00:31,4,-47.91637187918534,15.665840544759131,53.53854474083739,-0.04355710836571802,-0.31264489384354555,1.0000004232479185,0.31852600709200374,1.252395111418327,0.9520582768540038,25.476506451423404,72.48095205603052,-97.9312907079932,99.84028194731263,25.887781456050465,-76.65699999150284
2024-01-01 10:00:31,5,-47.35333677714972,-15.798058698802851,53.27179366510559,0.18886919459873752,-1.268329515080719,0.7712097317895399,0.12254079163108145,-0.804591912535269,0.19376064637973656,1.6498366309457424,31.02354077920995,-81.53022299380116,99.68343822624868,25.542988911869966,-73.85676836774866
2024-01-01 10:00:31,6,-29.5153190280969,-41.47517171686302,52.80415360263349,1.131532552585746,-1.8546292311940675,-0.7083438395068242,1.4277689563521925,-1.7435913678972241,-1.8671339018448734,30.0,-18.05809933642396,-58.61210972832386,99.36169131699873,25.52583773414482,-78.27823297768063
2024-01-01 10:00:31,7,-0.10244705681331502,-50.062229704264205,53.296179140730935,0.8069225057304629,0.31232022167491635,-0.3795618572886994,-0.5867261299808252,0.6051730406721418,-1.8180235304544965,30.0,-23.685621643256024,21.158982529036926,99.558675714752,25.84326710376307,-78.67784734468309
2024-01-01 10:00:31,8,28.724483926711947,-40.07417791859058,53.34173977461959,-0.6855715483193343,0.8501240378008816,1.2244487803079593,-1.3711456479295627,1.3585330719919426,2.214722032769153,30.0,48.26942157308761,128.88399195744563,99.8283274098771,25.934223527804775,-77.82445967906845
2024-01-01 10:00:31,9,47.50178269686433,-15.916668098531199,52.997976605400474,0.7623331162981017,-0.02091527838705609,-0.3789947696076723,1.6469350625118793,-0.3590297818394941,-1.3627441193766145,-30.0,-26.425728011181192,-1.5715657765198292,98.77100234953376,25.640021891445045,-75.37025857448435
2024-01-01 10:00:32,0,47.60983104265433,15.858855666895833,52.98853393513319,0.15698362166754265,0.8019779212897369,0.8151156065127196,0.5194994316350758,1.005433004017064,1.113883097928749,30.0,44.92690875755446,78.9246438537399,99.54169679621108,26.029766008111903,-75.44003235407256
2024-01-01 10:00:32,1,30.03074662567679,40.86574707200075,52.51001278297383,1.5770861463741284,0.16206857705433464,0.5891780493289929,3.5735351141116567,-0.023024158334813194,2.7433740038034955,-30.0,20.386542124044098,5.867379630101491,100.0,25.57353523355304,-73.86450525764197
2024-01-01 10:00:32,2,0.19815276947499166,49.02986257238498,53.222222897544746,-0.5189146623100713,-1.2920075320446642,0.7058690260418672,-1.0991119842010946,-1.3287285692693516,0.45733547950327136,-30.0,26.883784654515065,-111.88209144829392,100.0,25.61087985994343,-76.79184624497668
2024-01-01 10:00:32,3,-29.070855074132485,40.20816735054794,53.40186031412703,0.13385320288760383,-0.5192232875379688,0.19715810260984057,0.33335697474044323,-0.12887817028123294,-1.2500545946254604,30.0,20.18825710369718,-75.54418111767922,99.39894190804584,25.21395638423004,-76.73215641306382
2024-01-01 10:00:32,4,-48.3024152192629,15.366951953431345,53.47995482224216,-0.38604334007755625,-0.29888859132778656,-0.05858991859522433,-0.34248623171183823,0.013756302515758989,-1.0585903418431428,-30.0,-6.843108221700643,-142.25167944293207,99.93322399072514,25.20725268778527,-77.64217491726917
2024-01-01 10:00:32,5,-46.86792366130051,-16.14636534187443,53.449055367193345,0.4854131158492123,-0.3483066430715773,0.1772617020877547,0.2965439212504748,0.9200228720091417,-0.5939480297017852,30.0,16.525539474990588,-35.66121088979989,100.0,25.533122132902918,-79.37449986594002
2024-01-01 10:00:32,6,-29.736970619476345,-40.827761918458,52.9204679561806,-0.22165159137944457,0.6474097984050147,0.11631435354711073,-1.3531841439651906,2.502039029599082,0.824658193053935,30.0,9.646666563243356,108.89949887875592,100.0,25.04606311412696,-74.81355783493632
2024-01-01 10:00:32,7,1.138475415034386,-49.82965338269527,52.93044345249371,1.2409224718477012,0.23257632156893493,-0.3657356882372227,0.43399996611723834,-0.07974390010598142,0.013826169051476711,-30.0,-16.155504407300786,10.615344617133117,99.89615774287428,25.371960380915297,-75.03054424297659
2024-01-01 10:00:32,8,30.307023013715835,-39.83586911885005,53.16112926316456,1.5825390870038873,0.23830879974052976,-0.18061051145502915,2.2681106353232217,-0.6118152380603519,-1.4050592917629885,-30.0,-6.438852417101204,8.563619425432995,99.86464090322693,25.678680590922504,-78.46243384308863
2024-01-01 10:00:32,9,48.01084542120235,-14.019532050748815,53.4605224484348,0.5090627243380155,1.897136047782384,0.4625458430343272,-0.25327039196008627,1.91805132616944,0.8415406126419995,30.0,13.250741896799488,74.97952627699371,99.97906091802474,25.732534139879423,-80.72890630606568
2024-01-01 10:00:33,0,47.18482360973178,15.494466048718213,52.85526159848449,-0.4250074329225484,-0.3643896181776203,-0.13327233664870164,-0.581991054590091,-1.1663675394673572,-0.9483879431614213,-30.0,-13.390479699074747,-139.391126479428,99.69124983076105,25.687059879140474,-80.13633289142082
2024-01-01 10:00:33,1,29.13494224300434,40.63478021865992,53.2157923096428,-0.895804382672452,-0.23096685334083134,0.7057795266689695,-2.4728905290465804,-0.393035430395166,0.11660147733997661,-30.0,37.34080298905877,-165.5422079008641,99.6784938441356,25.365360651757896,-78.08010389651625
2024-01-01 10:00:33,2,-1.4151193704419152,49.73207720289467,52.836229293216654,-1.6132721399169068,0.7022146305096939,-0.3859936043280925,-1.0943574776068354,1.9942221625543581,-1.0918626303699597,30.0,-12.37352982781789,156.47778352409523,99.29462395545934,25.59916511906562,-75.9217170638831
2024-01-01 10:00:33,3,-29.721039629768754,40.112368137769,52.36989267989696,-0.6501845556362689,-0.09579921277893533,-1.031967634230071,-0.7840377585238727,0.42342407475903343,-1.2291257368399116,-30.0,-57.50914839405126,-171.61825731362092,99.94077959619669,25.703924584098708,-78.32977445279839
2024-01-01 10:00:33,4,-47.56634912443361,15.21304370385722,53.3342752249229,0.7360660948292903,-0.1539082495741244,-0.1456795973192655,1.1221094349068466,0.14498034175366215,-0.08708967872404116,30.0,-10.963915547991872,-11.810145527154415,99.86448385986174,25.6432624926336,-80.11560794588729
2024-01-01 10:00:33,5,-48.032186210273416,-16.142994578232063,53.087989815224965,-1.164262548972907,0.0033707636423656595,-0.3610655519683803,-1.6496756648221194,0.351677406713943,-0.538327254056135,30.0,-17.229840522947846,179.83411817978578,100.0,25.8853446178673,-79.52095797560644
2024-01-01 10:00:33,6,-27.969781579388577,-40.56544716457544,51.85257005785991,1.767189040087768,0.2623147538825634,-1.0678978983206946,1.9888406314672125,-0.38509504452245125,-1.1842122518678053,-30.0,-30.868558799066243,8.443115769243345,99.13419979096916,26.136801936124083,-76.07299098503101
2024-01-01 10:00:33,7,1.5330457449278787,-50.032029802569866,53.06010087648108,0.3945703298934926,-0.20237641987459654,0.1296574239873678,-0.8463521419542086,-0.43495274144353147,0.4953931122245905,-30.0,16.298277443382627,-27.153436735788343,100.0,25.488592301968694,-79.63678043129649
2024-01-01 10:00:33,8,30.733230743621196,-39.831418709587396,52.74457911878281,0.4262077299053608,0.004450409262652499,-0.41655014438175186,-1.1563313570985265,-0.23385839047787726,-0.2359396329267227,-30.0,-44.34188635618665,0.5982538165234551,99.24062205603337,25.561881103612603,-76.90371423081692
2024-01-01 10:00:33,9,47.55619301259726,-14.645663708412416,53.76706704794247,-0.45465240860508516,-0.6261316576636009,0.3065445995076672,-0.9637151329431006,-2.523267705445985,-0.15600124352666,-30.0,21.611508190331623,-125.98449265742052,99.1362228306387,25.581143941846708,-76.44763644378926
2024-01-01 10:00:34,0,46.96637601815392,16.27321597242991,53.06332226425934,-0.21844759157785631,0.7787499237116968,0.20806066577485183,0.20655984134469207,1.143139541889317,0.34133300242355347,30.0,14.426181721914238,105.66937007661703,100.0,25.68954223317853,-75.42501392640081
2024-01-01 10:00:34,1,28.437267925526026,42.06878476177804,54.051428075135604,-0.6976743174783131,1.434004543118121,0.8356357654928033,0.1981300651941389,1.6649713964589523,0.1298562388238338,30.0,27.65467057430063,115.94392659099275,100.0,26.065354582088723,-77.80880895527214
2024-01-01 10:00:34,2,-0.651194286306713,49.732667710470416,53.1046554212246,0.7639250841352021,0.0005905075757439704,0.2684261280079454,2.377197224052109,-0.7016241229339499,0.6544197323360379,-30.0,19.360325178507548,0.04428914015859653,99.38849935457289,25.42596923880071,-79.37589066682472
2024-01-01 10:00:34,3,-29.87937780644295,39.72615622779154,53.01794453977623,-0.1583381766741958,-0.3862119099774617,0.6480518598792742,0.49184637896207306,-0.29041269719852636,1.6800194941093451,30.0,57.214464416769246,-112.29252340236955,99.64494953057286,25.746883380616257,-78.44696395542988
2024-01-01 10:00:34,4,-48.2848741306115,15.11497069225223,53.40398297171375,-0.7185250061778916,-0.09807301160499016,0.06970774679085423,-1.454591101007182,0.055835237969134255,0.21538734411011973,-30.0,5.490618472660471,-172.22760612402612,99.62735205242069,25.36138713529841,-76.02223956826415
2024-01-01 10:00:34,5,-47.315101934209636,-16.862026171784066,53.967041284902315,0.7170842760637797,-0.7190315935520033,0.8790514696773499,1.8813468250366867,-0.722402357194369,1.2401170216457302,-30.0,40.88091138774362,-45.07769080993206,100.0,25.730372602713313,-77.32267413018783
2024-01-01 10:00:34,6,-29.01850164458318,-40.64363464369819,52.78508476388395,-1.0487200651946011,-0.0781874791227537,0.932514706024044,-2.815909105282369,-0.3405022330053171,2.0004126043447386,-30.0,41.56443500573985,-175.73619311350663,99.35350018597765,25.278616368236698,-77.59945398295639
2024-01-01 10:00:34,7,1.1098066729135816,-49.24191002322644,52.92545861058326,-0.4232390720142971,0.7901197793434278,-0.13464226589781703,-0.8178094019077897,0.9924961992180243,-0.2642996898851848,30.0,-8.542747522272363,118.17637113393212,99.78842789695719,25.721630696967857,-75.41759431243659
2024-01-01 10:00:34,8,30.41205009204862,-38.926891557495026,53.07132076441168,-0.32118065157257547,0.9045271520923706,0.3267416456288714,-0.7473883814779363,0.9000767428297181,0.7432917900106233,30.0,18.798903711795646,109.54899759335555,100.0,25.135567785567957,-78.309978791668
2024-01-01 10:00:34,9,47.77683855034788,-14.433989267625073,53.253896533285236,0.22064553775062024,0.211674440787343,-0.513170514657233,0.6752979463557054,0.8378060984509439,-0.8197151141649002,30.0,-59.21226124806488,43.81122256644164,99.35003253562601,25.792069260661385,-72.34209461846773
2024-01-01 10:00:35,0,47.17066107077621,18.087983323377834,53.30837734260437,0.20428505262228924,1.8147673509479247,0.24505507834503248,0.42273264420014556,1.036017427236228,0.03699441257018066,-30.0,7.642660211524295,83.5773558575693,99.68797311643002,26.28966664816277,-78.14423570633369
2024-01-01 10:00:35,1,27.62227803735768,42.00703183814953,53.3985085139736,-0.8149898881683448,-0.061752923628510814,-0.6529195611620011,-0.11731557069003173,-1.4957574667466318,-1.4885553266548044,-30.0,-38.61954940380749,-175.66689854955786,100.0,25.473442556805427,-78.11483665936208
2024-01-01 10:00:35,2,-2.0107398308009183,49.47656940764703,52.70593781351874,-1.3595455444942053,-0.2560983028233892,-0.39871760770586206,-2.1234706286294074,-0.25668881039913316,-0.6671437357138075,-30.0,-16.077195456822555,-169.33216908260852,100.0,25.42229445182311,-79.0535279562715
2024-01-01 10:00:35,3,-31.398356465371567,38.149686438784975,54.172229434748616,-1.5189786589286172,-1.5764697890065662,1.1542848949723847,-1.3606404822544214,-1.1902578790291045,0.5062330350931106,-30.0,27.801144969842788,-133.935979554149,99.27428333803466,25.549519093132165,-74.89579053802973
2024-01-01 10:00:35,4,-46.93370225277896,12.806154662665616,54.41619014322641,1.3511718778325417,-2.3088160295866142,1.0122071715126566,2.0696968840104333,-2.210743017981624,0.9424994247218024,30.0,20.725511843863913,-59.66285432377246,99.54330035569077,25.70959748815487,-74.99566333202912
2024-01-01 10:00:35,5,-48.257602770340895,-16.367542802090497,52.56789202244708,-0.9425008361312592,0.4944833696935689,-1.3991492624552322,-1.659585112195039,1.2135149632455722,-2.278200732132582,30.0,-52.739541848872896,152.31623541565463,100.0,26.172242294733312,-77.07822580731889
2024-01-01 10:00:35,6,-27.732838919116826,-41.79421427819916,53.658672670227695,1.2856627254663522,-1.1505796345009713,0.8735879063437437,2.3343827906609533,-1.0723921553782176,-0.058926799680300235,30.0,26.854508881359706,-41.82635271631484,99.51551192722687,26.087451867772838,-74.65970051812937
2024-01-01 10:00:35,7,1.9523195457096172,-49.03834785360817,53.88357190586976,0.8425128727960356,0.2035621696182659,0.9581132952864948,1.2657519448103327,-0.5865576097251619,1.0927555611843118,-30.0,47.865979098557716,13.583092838411302,100.0,25.842958087712006,-77.99321293402353
2024-01-01 10:00:35,8,30.489831856550087,-38.83461687832529,52.759344157534734,0.07778176450146645,0.09227467916973353,-0.3119766068769465,0.3989624160740419,-0.812252472922637,-0.6387182525058179,-30.0,-68.85170643387747,49.87121300269369,100.0,25.77637571122957,-75.81284819072043
2024-01-01 10:00:35,9,47.70630335640183,-13.78078515379264,52.457929028013304,-0.0705351939460499,0.653204113832432,-0.7959675052719319,-0.29118073169667014,0.44152967304508905,-0.282796990614699,30.0,-50.463314527813786,96.16311167630118,99.17556355382834,25.43112227277137,-75.12326164518225
2024-01-01 10:00:36,0,46.92361637925813,17.576488705871412,52.337537752207844,-0.2470446915180844,-0.5114946175064219,-0.9708395903965297,-0.45132974414037363,-2.3262619684543466,-1.2158946687415622,-30.0,-59.66846978577108,-115.77988785951926,99.4553616884238,25.741938374634444,-79.7843682778496
2024-01-01 10:00:36,1,26.798400779258877,41.40699541107449,54.464996409657175,-0.8238772580988041,-0.6000364270750396,1.0664878956835722,-0.008887369930459244,-0.5382835034465288,1.7194074568455733,30.0,46.29814744639957,-143.9338480338128,99.55713197600599,25.01026333092001,-75.28806714334573
2024-01-01 10:00:36,2,-2.1368699152914274,49.934280398200166,53.67818165012713,-0.1261300844905091,0.4577109905531387,0.9722438366083921,1.2334154600036962,0.7138092933765279,1.3709614443142542,30.0,63.97255270371387,105.40645415002882,99.82436172268096,25.37832531171879,-74.09546426110978
2024-01-01 10:00:36,3,-31.058608656079326,38.508106886101565,52.66658529727805,0.33974780929224124,0.35842044731658973,-1.5056441374705685,1.8587264682208584,1.934890236323156,-2.659929032442953,30.0,-71.84034579599044,46.532020909950006,100.0,25.16901427171718,-77.77170093977425
2024-01-01 10:00:36,4,-47.77912558068039,13.490760149997893,52.83592247728635,-0.845423327901436,0.6846054873322771,-1.580267665940056,-2.1965952057339777,2.9934215169188914,-2.5924748374527127,30.0,-55.45654342845434,141.00019748880564,100.0,25.252033342543324,-77.2706516413204
2024-01-01 10:00:36,5,-45.94119984871723,-17.10819724246786,53.49593414395673,2.316402921623663,-0.7406544403773623,0.9280421215096482,3.258903757754922,-1.2351378100709312,2.3271913839648803,-30.0,20.88720414696801,-17.731331818152587,100.0,25.964245896649675,-77.37758417680197
2024-01-01 10:00:36,6,-27.323751414072266,-41.33503142237929,52.37554507913387,0.4090875050445604,0.4591828558198756,-1.2831275910938231,-0.8765752204217918,1.609762490320847,-2.156715497437567,30.0,-64.39240504685637,48.30205179920932,99.79560057488095,25.17326253391931,-75.72090670024234
2024-01-01 10:00:36,7,2.494100463263947,-49.64436538282318,53.49393742908628,0.54178091755433,-0.6060175292150092,-0.3896344767834776,-0.3007319552417056,-0.8095796988332751,-1.3477477720699724,-30.0,-25.609441611952608,-48.203220406282696,100.0,25.67331196632984,-79.22027953939609
2024-01-01 10:00:36,8,31.620883557323904,-38.356798782212685,52.51182728072414,1.131051700773817,0.47781809611260684,-0.2475168768105931,1.0532699362723505,0.3855434169428733,0.06445973006635342,-30.0,-11.397361082990095,22.90185493945509,99.39593070923237,25.56209423460651,-79.39237749028067
2024-01-01 10:00:36,9,47.822192878111046,-13.183167647876308,53.377272309252746,0.11588952170921374,0.5976175059163324,0.919343281239442,0.18642471565526364,-0.055586607916099595,1.715310786511374,-30.0,56.48915114641393,79.02545871136884,99.2810837513879,25.789997311815153,-79.33611914519665
2024-01-01 10:00:37,0,46.60311034257712,18.11088670321861,54.60306061438337,-0.3205060366810102,0.5343979973471988,2.265522862175523,-0.0734613451629258,1.0458926148536207,3.2363624525720525,30.0,74.62086335020173,120.95328911825686,99.45194636938126,25.473542353291197,-76.34681109156189
2024-01-01 10:00:37,1,27.264749650821823,42.527954486964084,53.26541740195723,0.46634887156294624,1.1209590758895942,-1.1995790076999455,1.2902261296617503,1.7209955029646338,-2.2660669033835177,30.0,-44.65538619610244,67.41138683285307,99.42382160195412,25.692019887232142,-75.80511544563939
2024-01-01 10:00:37,2,-2.9116176638680744,49.81723612491093,53.754316028179616,-0.774747748576647,-0.11704427328923828,0.0761343780524868,-0.6486176640861379,-0.574755263842377,-0.8961094585559053,-30.0,5.549854000705265,-171.40906000298304,99.82270070369073,25.53302416880425,-75.91056896347676
2024-01-01 10:00:37,3,-31.740417840421255,39.15155103460886,53.68702508788246,-0.6818091843419296,0.6434441485072924,1.0204397906044136,-1.0215569936341709,0.28502370119070264,2.526083928074982,30.0,47.42600089963789,136.65820438168004,99.14180273609746,26.14997896933518,-76.86689321064043
2024-01-01 10:00:37,4,-47.9703615341942,13.37176246629904,52.49277792601523,-0.19123595351380374,-0.11899768369885244,-0.34314455127112353,0.6541873743876323,-0.8036031710311295,1.2371231146689325,-30.0,-56.719482485886104,-148.10782077982313,99.39727493948307,25.66762995377361,-77.98256244425835
2024-01-01 10:00:37,5,-46.008533772512784,-18.31860790455986,53.64413256882708,-0.0673339237955517,-1.210410662092002,0.14819842487035118,-2.3837368454192145,-0.4697562217146398,-0.779843696639297,-30.0,6.969682424732307,-93.18402469602708,100.0,25.713714377525093,-79.00234396340542
2024-01-01 10:00:37,6,-26.83580755144009,-42.72390865718474,53.79994667423153,0.48794386263217504,-1.3888772348054488,1.424401595097656,0.07885635758761467,-1.8480600906253244,2.707529186191479,-30.0,44.05662271893244,-70.64247577492097,100.0,25.774969825718824,-81.6200070149607
2024-01-01 10:00:37,7,2.030693372932605,-50.02230187772627,53.99439315414443,-0.4634070903313421,-0.3779364949030892,0.5004557250581527,-1.005188007885672,0.22808103431191995,0.8900902018416303,-30.0,39.9262349265887,-140.80067610577427,99.40272896248749,25.52700757488787,-78.39649696556035
2024-01-01 10:00:37,8,31.45215334275148,-38.52026556644052,53.64472790597912,-0.16873021457242388,-0.16346678422783611,1.132900625254976,-1.2997819153462409,-0.641284880340443,1.3804175020655691,-30.0,78.28468659540152,-135.90773581225207,99.00694302295538,25.65679893371999,-77.14300711017773
2024-01-01 10:00:37,9,48.27696882131159,-12.432924709127292,53.51217464641795,0.45477594320054493,0.7502429387490164,0.13490233716520095,0.3388864214913312,0.15262543283268393,-0.784440944074241,-30.0,8.741724843535446,58.7769474526364,99.4582993645702,26.10854725164722,-75.73769595990883
2024-01-01 10:00:38,0,46.33705129643496,18.696797141815942,53.42725134070014,-0.2660590461421606,0.585910438597331,-1.1758092736832282,0.054446990538849604,0.05151244125013221,-3.441332135858751,-30.0,-61.309279541947554,114.4225650718291,99.5143256483941,25.619290969629187,-75.54488118240737
2024-01-01 10:00:38,1,26.394223570743414,42.31044927552086,53.31155519792965,-0.8705260800784096,-0.21750521144322477,0.04613779597242029,-1.3368749516413558,-1.338464287332819,1.2457168036723658,-30.0,2.943511470314885,-165.97158108570346,100.0,25.632554986626364,-76.82735733613029
2024-01-01 10:00:38,2,-3.4757125452183053,49.171868887191906,53.86838071999785,-0.5640948813502309,-0.6453672377190216,0.11406469181823553,0.21065286722641607,-0.5283229644297833,0.037930313765748735,30.0,7.580085742672156,-131.1556686748069,99.39857137873138,25.665359050234137,-78.93807304530463
2024-01-01 10:00:38,3,-31.645993171681425,37.985898367761386,53.35518576104259,0.0944246687398298,-1.1656526668474712,-0.3318393268398694,0.7762338530817594,-1.8090968153547635,-1.352279117444283,-30.0,-15.841379679511997,-85.36881966828943,99.45938158525445,25.325177900663242,-80.09776343879705
2024-01-01 10:00:38,4,-48.18129234958151,11.965579117876374,53.73346926700177,-0.2109308153873144,-1.4061833484226671,1.2406913409865439,-0.01969486187351066,-1.2871856647238147,1.5838358922576674,30.0,41.10630270785059,-98.53089763455836,100.0,25.788928699291,-75.77628969393577
2024-01-01 10:00:38,5,-46.49794575659553,-18.3850769102787,53.87328115426081,-0.4894119840827429,-0.06646900571883663,0.22914858543372674,-0.4220780602871912,1.1439416563731655,0.08095016056337556,-30.0,24.889069559420715,-172.26575244713516,100.0,25.548364111663542,-77.88318446085296
2024-01-01 10:00:38,6,-25.612997916668313,-43.10372255892461,53.73678747449195,1.222809634771778,-0.3798139017398725,-0.06315919973958017,0.734865772139603,1.0090633330655763,-1.4875607948372362,30.0,-2.82389648657192,-17.255188699942273,99.78792233173391,25.403606581372568,-80.4163773920112
2024-01-01 10:00:38,7,3.408517349671462,-48.87828062705885,53.46234444404391,1.3778239767388567,1.1440212506674214,-0.5320487101005256,1.8412310670701988,1.5219577455705107,-1.0325044351586783,30.0,-16.54621039967561,39.703193797509506,99.29443646865445,25.438180065235468,-76.99547280614061
2024-01-01 10:00:38,8,32.336480339455925,-38.26154373119317,53.28616525827614,0.8843269967044449,0.25872183524734993,-0.35856264770297486,1.0530572112768688,0.42218861947518604,-1.491463272957951,30.0,-21.263567639274168,16.30755150956338,100.0,25.73049887276361,-79.61122950213421
2024-01-01 10:00:38,9,48.44775715386111,-12.135161665559787,52.75417876912686,0.1707883325495203,0.29776304356750494,-0.7579958772910871,-0.2839876106510246,-0.45247989518151144,-0.892898214456288,6.928540038002886,-65.63613607504766,60.16265546023698,99.60755994031963,25.648308186211334,-79.16535707436843
2024-01-01 10:00:39,0,45.66111397405589,19.580832163415582,53.89236361234544,-0.6759373223790703,0.8840350215996402,0.4651122716453031,-0.40987827623690976,0.29812458300230915,1.6409215453285313,30.0,22.682553910421735,127.40169790431916,99.48608447211997,25.381150692425038,-78.29580851158296
2024-01-01 10:00:39,1,25.493273743188137,42.05967697101998,53.870339353208166,-0.9009498275552765,-0.2507723045008774,0.5587841552785164,-0.030423747476866936,-0.03326709305765263,0.5126463593060961,7.628535348002714,30.85843905083862,-164.44587401610292,99.79759340927674,26.27908956697825,-79.48168227026716
2024-01-01 10:00:39,2,-4.126973104375985,49.88971676477619,53.2031402180031,-0.6512605591576794,0.7178478775842834,-0.6652405019947523,-0.08716567780744855,1.363215115303305,-0.7793051938129878,30.0,-34.4635817055956,132.21558328076637,100.0,25.82811757618437,-79.89757654255338
2024-01-01 10:00:39,3,-32.30612119012799,38.07944535191212,53.7893270652474,-0.6601280184465637,0.09354698415073415,0.43414130420480745,-0.7545526871863935,1.2591996509982053,0.7659806310446768,30.0,33.07042800420478,171.93429923348896,100.0,25.986861791918535,-73.8382703154823
2024-01-01 10:00:39,4,-49.10190223370284,12.439037653453989,53.47643695664607,-0.9206098841213262,0.4734585355776151,-0.2570323103557044,-0.7096790687340118,1.8796418840002822,-1.4977236513422483,30.0,-13.943833649070754,152.78378883639186,100.0,25.035427049035377,-76.7679623589943
2024-01-01 10:00:39,5,-45.944585813032184,-19.203900011265212,53.56672850227585,0.5533599435633434,-0.8188231009865135,-0.3065526519849584,1.0427719276460863,-0.7523540952676768,-0.5357012374186851,30.0,-17.233422345731896,-55.9492063960103,99.26686086032723,26.096403519835413,-78.3968468720376
2024-01-01 10:00:39,6,-26.931481013185195,-42.863005412388596,53.29514115871455,-1.3184830965168821,0.24071714653601362,-0.44164631577739755,-2.54129273128866,0.6205310482758861,-0.3784871160378174,30.0,-18.238017428911924,169.65339050810923,98.92178767489254,25.87682164693819,-78.75518212415082
2024-01-01 10:00:39,7,4.223161745517609,-50.17436746998341,53.26051746754529,0.8146443958461469,-1.2960868429245593,-0.2018269764986158,-0.5631795808927098,-2.4401080935919808,0.33022173360190976,-30.0,-7.510573195145231,-57.848933148672295,100.0,25.712897602136646,-77.47051912883713
2024-01-01 10:00:39,8,32.022305947056495,-37.70404665810637,53.46770967351892,-0.3141743923994298,0.5574970730868003,0.18154441524277587,-1.1985013891038747,0.29877523783945037,0.5401070629457507,30.0,15.83836495039555,119.40319315946044,100.0,25.588132210008173,-79.80874959452964
2024-01-01 10:00:39,9,47.51341118341054,-11.491922844201456,53.61115998414986,-0.9343459704505719,0.6432388213583309,0.8569812150229978,-1.1051343030000922,0.34547577779082594,1.614977092314085,30.0,37.07030441317105,145.45501748638836,99.67681458041069,25.72292551409344,-74.1962501724018
2024-01-01 10:00:40,0,46.44856567366578,19.016223388035158,54.288177609965665,0.7874516996098961,-0.5646087753804245,0.3958139976202233,1.4633890219889665,-1.4486437969800647,-0.06929827402507982,-30.0,22.219918683879833,-35.640807053825604,99.13795385360315,26.116376954211606,-76.05240102448673
2024-01-01 10:00:40,1,25.622636576599238,42.83445872030199,53.70424197974622,0.12936283341110055,0.7747817492820062,-0.16609737346194464,1.030312660966377,1.0255540537828836,-0.7248815287404611,30.0,-11.939457263312631,80.52094670999193,99.78230780465614,25.88650402846502,-78.16228915203062
2024-01-01 10:00:40,2,-4.773018459910726,48.866536434150696,53.75636328206337,-0.6460453555347412,-1.0231803306254932,0.5532230640602691,0.005215203622938258,-1.7410282082097766,1.2184635660550214,-30.0,24.569035727493475,-122.26868653005731,99.65919636312694,25.492683848842162,-78.35860880290213
2024-01-01 10:00:40,3,-31.96226811850756,37.887394553408335,53.29433448569498,0.3438530716204298,-0.1920507985037858,-0.4949925795524166,1.0039810900669934,-0.28559778265451996,-0.929133883757224,-30.0,-51.49178335249868,-29.184483495383578,100.0,26.109442967073612,-76.44574036125822
2024-01-01 10:00:40,4,-48.327533488970694,11.800189520881384,53.736317417154325,0.7743687447321435,-0.6388481325726048,0.2598804605082563,1.6949786288534696,-1.1123066681502198,0.5169127708639607,-30.0,14.513886250354753,-39.52236351465468,99.44631696331301,25.65918001592515,-74.18129294743896
2024-01-01 10:00:40,5,-46.1153324182392,-19.792518427552746,54.10888294802944,-0.17074660520701457,-0.5886184162875345,0.5421544457535887,-0.724106548770358,0.23020468469897892,0.8487070977385471,-30.0,41.4958586609336,-106.17640271925802,100.0,25.401208371947572,-80.77608999263173
2024-01-01 10:00:40,6,-25.503104570983435,-42.32839649991139,54.07837999167561,1.4283764422017597,0.5346089124772035,0.7832388329610609,2.746859538718642,0.29389176594118993,1.2248851487384584,-30.0,27.182790342102347,20.519735198024573,100.0,25.600973949674035,-76.96639272227054
2024-01-01 10:00:40,7,4.040731128987032,-49.3181042038631,53.237352561826036,-0.1824306165305769,0.8562632661203082,-0.023164905719255557,-0.9970750123767238,2.1523501090448676,0.17866207077936025,30.0,-1.5156709144963756,102.02728570182089,100.0,25.60585863588422,-78.04928520516413
2024-01-01 10:00:40,8,32.72989977741419,-38.00424935830595,53.91705156740406,0.7075938303576947,-0.30020270019957707,0.44934189388514056,1.0217682227571245,-0.8576997732863774,0.2677974786423647,-30.0,30.310207257248905,-22.98949759439718,99.29237416723345,25.68760393122021,-77.07549165437216
2024-01-01 10:00:40,9,48.464065664007094,-12.070198752933445,53.519212440690644,0.9506544805965547,-0.5782759087319889,-0.09194754345921297,1.8850004510471265,-1.2215147300903197,-0.9489287584822108,-30.0,-4.723795512216959,-31.311832001649147,99.87464455243565,25.56350430744864,-76.15490674410624
2024-01-01 10:00:41,0,45.15511560943412,20.22389494612128,54.750956961539465,-1.2934500642316635,1.2076715580861226,0.46277935157380057,-2.0809017638415597,1.7722803334665471,0.06696535395357728,30.0,14.65556700395153,136.96424706197027,99.21012217374874,25.929727722224392,-82.04758542774378
2024-01-01 10:00:41,1,25.540007381324923,43.650880264543396,53.10638124110021,-0.08262919527431478,0.8164215442414076,-0.5978607386460126,-0.21199202868541533,0.0416397949594014,-0.431763365184068,30.0,-36.07604051070454,95.77916875690607,99.47298210901016,25.665780382914008,-79.52800105601978
2024-01-01 10:00:41,2,-6.4816611910908986,50.419711949744595,54.171737195404916,-1.7086427311801726,1.5531755155938995,0.41537391334154705,-1.0625973756454314,2.5763558462193927,-0.13784915071872206,30.0,10.197746891843167,137.72880907435214,99.63719717043787,25.98401434168868,-78.04086478812111
2024-01-01 10:00:41,3,-33.85169712571363,37.54075882708505,53.3258869454574,-1.8894290072060684,-0.3466357263232851,0.03155245976241616,-2.233282078826498,-0.15458492781949928,0.5265450393148328,-30.0,0.9410177913461415,-169.60408917285545,99.89475172037169,25.66436839077966,-81.4873523688856
2024-01-01 10:00:41,4,-49.2475824495723,11.145943821363375,53.607845730032416,-0.9200489606016049,-0.6542456995180093,-0.12847168712190893,-1.6944177053337484,-0.015397566945404506,-0.38835214763016523,-30.0,-6.4921896934935575,-144.58341371143072,100.0,25.30824405548827,-78.37168663658983
2024-01-01 10:00:41,5,-45.20062685986105,-18.74721071420879,53.292669736434874,0.9147055583781452,1.0453077133439557,-0.8162132115945653,1.0854521635851597,1.6339261296314902,-1.358367657348154,30.0,-30.439406603277146,48.812171596514055,99.8006554746364,25.73242547986516,-78.37277553179503
